subject,pattern,pat_prblty,cue1,cue2,cue3,cue4,start_time,RT,trial_outcome,response,accuracy
6200,3,0.923,1,2,0,0,837157.1311931,837158.8944216,1,0,0
6200,8,0.105,0,2,3,4,837157.1311931,837163.1765231,0,1,0
6200,7,0.895,1,0,0,0,837157.1311931,837165.4610697,1,1,1
6200,8,0.105,0,2,3,4,837157.1311931,837167.2613566,0,0,1
6200,12,0.077,0,0,3,4,837157.1311931,837169.7779521,0,1,0
6200,9,0.5,0,2,3,0,837157.1311931,837172.2440547,1,0,0
6200,8,0.105,0,2,3,4,837157.1311931,837174.3611779,0,0,1
6200,12,0.077,0,0,3,4,837157.1311931,837176.8945584,1,0,0
6200,3,0.923,1,2,0,0,837157.1311931,837179.8600499,1,0,0
6200,1,0.895,1,2,3,0,837157.1311931,837181.694511,1,0,0
6200,8,0.105,0,2,3,4,837157.1311931,837183.977995,0,0,1
6200,3,0.923,1,2,0,0,837157.1311931,837186.2611776,1,1,1
6200,13,0.444,0,0,3,0,837157.1311931,837188.3614019,1,1,1
6200,5,0.833,1,0,3,0,837157.1311931,837191.5769931,1,1,1
6200,7,0.895,1,0,0,0,837157.1311931,837193.6447823,0,0,1
6200,6,0.5,1,0,0,4,837157.1311931,837195.5112978,1,1,1
6200,4,0.222,1,0,3,4,837157.1311931,837197.544737,0,1,0
6200,8,0.105,0,2,3,4,837157.1311931,837199.6112616,0,1,0
6200,1,0.895,1,2,3,0,837157.1311931,837202.6613319,1,0,0
6200,12,0.077,0,0,3,4,837157.1311931,837204.8449142,0,0,1
6200,3,0.923,1,2,0,0,837157.1311931,837207.0945043,1,0,0
6200,12,0.077,0,0,3,4,837157.1311931,837209.3114137,0,0,1
6200,2,0.778,1,2,0,4,837157.1311931,837211.7768258,0,1,0
6200,10,0.167,0,2,0,4,837157.1311931,837214.377856,0,0,1
6200,1,0.895,1,2,3,0,837157.1311931,837216.9431899,1,0,0
6200,6,0.5,1,0,0,4,837157.1311931,837219.2278912,0,0,1
6200,14,0.105,0,0,0,4,837157.1311931,837221.3780155,0,0,1
6200,11,0.556,0,2,0,0,837157.1311931,837224.0434928,0,1,0
6200,7,0.895,1,0,0,0,837157.1311931,837226.2932746,1,1,1
6200,4,0.222,1,0,3,4,837157.1311931,837230.9283927,0,0,1
6200,12,0.077,0,0,3,4,837157.1311931,837233.477237,0,0,1
6200,1,0.895,1,2,3,0,837157.1311931,837235.9933195,1,0,0
6200,12,0.077,0,0,3,4,837157.1311931,837239.7935422,0,0,1
6200,3,0.923,1,2,0,0,837157.1311931,837242.1105279,1,1,1
6200,2,0.778,1,2,0,4,837157.1311931,837244.5102089,1,1,1
6200,14,0.105,0,0,0,4,837157.1311931,837246.6103183,0,0,1
6200,8,0.105,0,2,3,4,837157.1311931,837248.8766986,0,0,1
6200,3,0.923,1,2,0,0,837157.1311931,837250.8946318,0,1,0
6200,8,0.105,0,2,3,4,837157.1311931,837254.461397,1,0,0
6200,14,0.105,0,0,0,4,837157.1311931,837256.2612488,0,0,1
6200,5,0.833,1,0,3,0,837157.1311931,837260.0433775,1,0,0
6200,9,0.5,0,2,3,0,837157.1311931,837262.6945374,1,0,0
6200,2,0.778,1,2,0,4,837157.1311931,837268.5279522,1,1,1
6200,12,0.077,0,0,3,4,837157.1311931,837270.7280561,0,0,1
6200,6,0.5,1,0,0,4,837157.1311931,837272.61125,0,1,0
6200,2,0.778,1,2,0,4,837157.1311931,837275.5613686,0,0,1
6200,14,0.105,0,0,0,4,837157.1311931,837277.561483,0,0,1
6200,13,0.444,0,0,3,0,837157.1311931,837279.494775,0,0,1
6200,1,0.895,1,2,3,0,837157.1311931,837282.0603609,0,1,0
6200,10,0.167,0,2,0,4,837157.1311931,837284.2449555,1,0,0
6200,3,0.923,1,2,0,0,837157.1311931,837287.2112392,1,1,1
6200,10,0.167,0,2,0,4,837157.1311931,837291.6111439,0,0,1
6200,7,0.895,1,0,0,0,837157.1311931,837293.7280031,1,1,1
6200,2,0.778,1,2,0,4,837157.1311931,837296.8934766,1,1,1
6200,12,0.077,0,0,3,4,837157.1311931,837299.228042,0,0,1
6200,8,0.105,0,2,3,4,837157.1311931,837301.7435004,0,1,0
6200,14,0.105,0,0,0,4,837157.1311931,837303.5941879,0,0,1
6200,12,0.077,0,0,3,4,837157.1311931,837305.677944,0,0,1
6200,7,0.895,1,0,0,0,837157.1311931,837307.5614355,1,0,0
6200,10,0.167,0,2,0,4,837157.1311931,837309.96147,1,0,0
6200,7,0.895,1,0,0,0,837157.1311931,837311.9947846,1,1,1
6200,14,0.105,0,0,0,4,837157.1311931,837314.9780089,0,0,1
6200,11,0.556,0,2,0,0,837157.1311931,837317.0779278,0,1,0
6200,13,0.444,0,0,3,0,837157.1311931,837318.9779489,0,0,1
6200,3,0.923,1,2,0,0,837157.1311931,837321.0946823,1,1,1
6200,4,0.222,1,0,3,4,837157.1311931,837323.5780615,0,0,1
6200,5,0.833,1,0,3,0,837157.1311931,837325.6602325,1,0,0
6200,12,0.077,0,0,3,4,837157.1311931,837329.3781139,0,0,1
6200,3,0.923,1,2,0,0,837157.1311931,837331.8946181,1,1,1
6200,1,0.895,1,2,3,0,837157.1311931,837335.7447517,1,0,0
6200,10,0.167,0,2,0,4,837157.1311931,837340.2113085,0,0,1
6200,7,0.895,1,0,0,0,837157.1311931,837342.8273371,0,0,1
6200,12,0.077,0,0,3,4,837157.1311931,837345.9947296,1,1,1
6200,8,0.105,0,2,3,4,837157.1311931,837348.193471,0,1,0
6200,12,0.077,0,0,3,4,837157.1311931,837351.1445284,0,0,1
6200,2,0.778,1,2,0,4,837157.1311931,837353.8618753,1,1,1
6200,5,0.833,1,0,3,0,837157.1311931,837356.2114647,1,1,1
6200,1,0.895,1,2,3,0,837157.1311931,837358.9275595,1,1,1
6200,3,0.923,1,2,0,0,837157.1311931,837361.028114,0,0,1
6200,1,0.895,1,2,3,0,837157.1311931,837363.1767067,1,1,1
6200,14,0.105,0,0,0,4,837157.1311931,837365.2600049,0,0,1
6200,12,0.077,0,0,3,4,837157.1311931,837367.3781712,0,0,1
6200,5,0.833,1,0,3,0,837157.1311931,837369.3448105,1,1,1
6200,11,0.556,0,2,0,0,837157.1311931,837371.9447912,1,0,0
6200,6,0.5,1,0,0,4,837157.1311931,837375.661481,1,0,0
6200,5,0.833,1,0,3,0,837157.1311931,837378.8780511,1,0,0
6200,10,0.167,0,2,0,4,837157.1311931,837381.4451061,0,0,1
6200,12,0.077,0,0,3,4,837157.1311931,837383.3767283,0,0,1
6200,8,0.105,0,2,3,4,837157.1311931,837386.8615573,0,0,1
6200,13,0.444,0,0,3,0,837157.1311931,837388.8280963,0,0,1
6200,8,0.105,0,2,3,4,837157.1311931,837392.4780563,1,0,0
6200,10,0.167,0,2,0,4,837157.1311931,837394.6435126,0,1,0
6200,11,0.556,0,2,0,0,837157.1311931,837397.0947291,1,0,0
6200,8,0.105,0,2,3,4,837157.1311931,837399.3434636,0,0,1
6200,3,0.923,1,2,0,0,837157.1311931,837401.7115293,1,0,0
6200,9,0.5,0,2,3,0,837157.1311931,837403.7282412,1,0,0
6200,7,0.895,1,0,0,0,837157.1311931,837406.1449027,1,1,1
6200,12,0.077,0,0,3,4,837157.1311931,837408.2767789,0,0,1
6200,13,0.444,0,0,3,0,837157.1311931,837410.361395,1,0,0
6200,14,0.105,0,0,0,4,837157.1311931,837412.3615722,0,0,1
6200,12,0.077,0,0,3,4,837157.1311931,837415.6614452,0,0,1
6200,14,0.105,0,0,0,4,837157.1311931,837419.1120353,0,0,1
6200,7,0.895,1,0,0,0,837157.1311931,837421.0780548,1,1,1
6200,3,0.923,1,2,0,0,837157.1311931,837424.2781142,1,1,1
6200,7,0.895,1,0,0,0,837157.1311931,837426.6614721,1,1,1
6200,3,0.923,1,2,0,0,837157.1311931,837429.9281555,1,0,0
6200,4,0.222,1,0,3,4,837157.1311931,837433.2936248,0,1,0
6200,1,0.895,1,2,3,0,837157.1311931,837435.4612534,1,1,1
6200,8,0.105,0,2,3,4,837157.1311931,837437.6937331,0,0,1
6200,1,0.895,1,2,3,0,837157.1311931,837440.3435387,1,0,0
6200,3,0.923,1,2,0,0,837157.1311931,837442.2602202,1,1,1
6200,13,0.444,0,0,3,0,837157.1311931,837444.3940388,0,0,1
6200,14,0.105,0,0,0,4,837157.1311931,837446.2103188,0,0,1
6200,7,0.895,1,0,0,0,837157.1311931,837448.1947021,1,1,1
6200,3,0.923,1,2,0,0,837157.1311931,837450.3281824,1,0,0
6200,12,0.077,0,0,3,4,837157.1311931,837452.3102309,0,1,0
6200,8,0.105,0,2,3,4,837157.1311931,837454.3935541,0,1,0
6200,13,0.444,0,0,3,0,837157.1311931,837456.1279802,1,0,0
6200,14,0.105,0,0,0,4,837157.1311931,837457.3769839,0,0,1
6200,1,0.895,1,2,3,0,837157.1311931,837459.1768777,1,1,1
6200,12,0.077,0,0,3,4,837157.1311931,837461.028063,0,0,1
6200,1,0.895,1,2,3,0,837157.1311931,837462.9446503,1,1,1
6200,7,0.895,1,0,0,0,837157.1311931,837464.7114817,1,1,1
6200,4,0.222,1,0,3,4,837157.1311931,837466.5435512,1,0,0
6200,3,0.923,1,2,0,0,837157.1311931,837468.6282652,1,1,1
6200,7,0.895,1,0,0,0,837157.1311931,837470.41133,1,1,1
6200,4,0.222,1,0,3,4,837157.1311931,837472.6280262,0,0,1
6200,1,0.895,1,2,3,0,837157.1311931,837475.2601528,0,1,0
6200,6,0.5,1,0,0,4,837157.1311931,837477.2449403,0,1,0
6200,11,0.556,0,2,0,0,837157.1311931,837479.2437548,1,0,0
6200,12,0.077,0,0,3,4,837157.1311931,837481.3448854,0,0,1
6200,11,0.556,0,2,0,0,837157.1311931,837483.6114292,1,1,1
6200,7,0.895,1,0,0,0,837157.1311931,837485.4271321,1,0,0
6200,1,0.895,1,2,3,0,837157.1311931,837487.8946324,1,1,1
6200,8,0.105,0,2,3,4,837157.1311931,837490.0769131,0,0,1
6200,12,0.077,0,0,3,4,837157.1311931,837491.9936162,0,1,0
6200,3,0.923,1,2,0,0,837157.1311931,837493.2438365,1,0,0
6200,2,0.778,1,2,0,4,837157.1311931,837494.9936045,1,0,0
6200,5,0.833,1,0,3,0,837157.1311931,837497.2270492,1,0,0
6200,11,0.556,0,2,0,0,837157.1311931,837499.0951597,1,1,1
6200,14,0.105,0,0,0,4,837157.1311931,837501.144815,0,1,0
6200,7,0.895,1,0,0,0,837157.1311931,837502.8116107,1,1,1
6200,3,0.923,1,2,0,0,837157.1311931,837504.5450316,1,0,0
6200,14,0.105,0,0,0,4,837157.1311931,837507.1272732,0,0,1
6200,10,0.167,0,2,0,4,837157.1311931,837510.5448783,0,0,1
6200,6,0.5,1,0,0,4,837157.1311931,837512.6116645,1,0,0
6200,8,0.105,0,2,3,4,837157.1311931,837514.5601832,0,0,1
6200,1,0.895,1,2,3,0,837157.1311931,837516.6613929,1,0,0
6200,9,0.5,0,2,3,0,837157.1311931,837518.4949528,0,1,0
6200,3,0.923,1,2,0,0,837157.1311931,837520.2116371,1,0,0
6200,5,0.833,1,0,3,0,837157.1311931,837522.0615465,1,0,0
6200,12,0.077,0,0,3,4,837157.1311931,837523.693637,0,0,1
6200,10,0.167,0,2,0,4,837157.1311931,837525.5780777,0,0,1
6200,14,0.105,0,0,0,4,837157.1311931,837527.7616845,1,0,0
6200,10,0.167,0,2,0,4,837157.1311931,837529.7951697,0,0,1
6200,3,0.923,1,2,0,0,837157.1311931,837531.993699,1,0,0
6200,2,0.778,1,2,0,4,837157.1311931,837533.8770193,1,1,1
6200,3,0.923,1,2,0,0,837157.1311931,837535.9950544,1,0,0
6200,12,0.077,0,0,3,4,837157.1311931,837537.7616348,0,1,0
6200,8,0.105,0,2,3,4,837157.1311931,837539.3449406,0,1,0
6200,3,0.923,1,2,0,0,837157.1311931,837540.8436642,1,1,1
6200,5,0.833,1,0,3,0,837157.1311931,837542.9281652,0,0,1
6200,14,0.105,0,0,0,4,837157.1311931,837545.1617352,0,1,0
6200,1,0.895,1,2,3,0,837157.1311931,837546.8615499,1,0,0
6200,11,0.556,0,2,0,0,837157.1311931,837548.9937515,0,0,1
6200,14,0.105,0,0,0,4,837157.1311931,837551.1602128,0,1,0
6200,4,0.222,1,0,3,4,837157.1311931,837553.3102406,0,1,0
6200,10,0.167,0,2,0,4,837157.1311931,837556.2283377,0,1,0
6200,12,0.077,0,0,3,4,837157.1311931,837558.9283311,0,0,1
6200,4,0.222,1,0,3,4,837157.1311931,837563.1935545,1,0,0
6200,8,0.105,0,2,3,4,837157.1311931,837567.0602308,0,0,1
6200,3,0.923,1,2,0,0,837157.1311931,837570.0452845,1,1,1
6200,11,0.556,0,2,0,0,837157.1311931,837572.5270086,0,1,0
6200,12,0.077,0,0,3,4,837157.1311931,837574.8949165,0,0,1
6200,1,0.895,1,2,3,0,837157.1311931,837577.4103299,1,1,1
6200,14,0.105,0,0,0,4,837157.1311931,837580.0785605,0,0,1
6200,7,0.895,1,0,0,0,837157.1311931,837582.177146,1,1,1
6200,13,0.444,0,0,3,0,837157.1311931,837584.42821,0,0,1
6200,14,0.105,0,0,0,4,837157.1311931,837587.4282005,0,0,1
6200,7,0.895,1,0,0,0,837157.1311931,837589.3115377,1,1,1
6200,3,0.923,1,2,0,0,837157.1311931,837591.8283855,1,1,1
6200,1,0.895,1,2,3,0,837157.1311931,837594.6104145,1,0,0
6200,13,0.444,0,0,3,0,837157.1311931,837597.0115702,1,0,0
6200,2,0.778,1,2,0,4,837157.1311931,837599.5604746,1,0,0
6200,1,0.895,1,2,3,0,837157.1311931,837601.3281441,1,1,1
6200,12,0.077,0,0,3,4,837157.1311931,837603.5116086,0,0,1
6200,9,0.5,0,2,3,0,837157.1311931,837606.0439014,0,1,0
6200,5,0.833,1,0,3,0,837157.1311931,837608.1281526,1,1,1
6200,7,0.895,1,0,0,0,837157.1311931,837610.4114916,1,1,1
6200,3,0.923,1,2,0,0,837157.1311931,837614.6935664,1,0,0
6200,9,0.5,0,2,3,0,837157.1311931,837617.6937272,0,0,1
6200,8,0.105,0,2,3,4,837157.1311931,837621.0771616,0,0,1
6200,14,0.105,0,0,0,4,837157.1311931,837623.8281957,1,0,0
6200,3,0.923,1,2,0,0,837157.1311931,837626.3436404,1,0,0
6200,7,0.895,1,0,0,0,837157.1311931,837628.2614962,1,1,1
6200,5,0.833,1,0,3,0,837157.1311931,837630.611463,0,1,0
6200,12,0.077,0,0,3,4,837157.1311931,837632.8948311,0,0,1
6200,5,0.833,1,0,3,0,837157.1311931,837635.9604782,1,0,0
6200,10,0.167,0,2,0,4,837157.1311931,837638.327077,0,0,1
6200,4,0.222,1,0,3,4,837157.1311931,837640.4785331,0,1,0
6201,3,0.923,1,2,0,0,830907.715917,830909.4218247,1,1,1
6201,8,0.105,0,2,3,4,830907.715917,830912.4872644,0,1,0
6201,7,0.895,1,0,0,0,830907.715917,830915.0051352,1,0,0
6201,8,0.105,0,2,3,4,830907.715917,830918.6042131,0,0,1
6201,12,0.077,0,0,3,4,830907.715917,830921.5207736,0,1,0
6201,9,0.5,0,2,3,0,830907.715917,830925.8373291,1,1,1
6201,8,0.105,0,2,3,4,830907.715917,830929.4540313,0,1,0
6201,12,0.077,0,0,3,4,830907.715917,830933.4041112,1,0,0
6201,3,0.923,1,2,0,0,830907.715917,830936.1218232,1,0,0
6201,1,0.895,1,2,3,0,830907.715917,830940.3374284,1,1,1
6201,8,0.105,0,2,3,4,830907.715917,830945.1720678,0,0,1
6201,3,0.923,1,2,0,0,830907.715917,830947.9542374,1,1,1
6201,13,0.444,0,0,3,0,830907.715917,830950.0875797,1,0,0
6201,5,0.833,1,0,3,0,830907.715917,830955.6886075,1,0,0
6201,7,0.895,1,0,0,0,830907.715917,830957.5887209,0,1,0
6201,6,0.5,1,0,0,4,830907.715917,830962.2060082,1,0,0
6201,4,0.222,1,0,3,4,830907.715917,830967.1373981,0,0,1
6201,8,0.105,0,2,3,4,830907.715917,830971.0541525,0,1,0
6201,1,0.895,1,2,3,0,830907.715917,830973.4874974,1,1,1
6201,12,0.077,0,0,3,4,830907.715917,830977.3549396,0,0,1
6201,3,0.923,1,2,0,0,830907.715917,830980.7053958,1,1,1
6201,12,0.077,0,0,3,4,830907.715917,830984.2713647,0,0,1
6201,2,0.778,1,2,0,4,830907.715917,830986.8720557,0,1,0
6201,10,0.167,0,2,0,4,830907.715917,830990.4720311,0,1,0
6201,1,0.895,1,2,3,0,830907.715917,830995.0225024,1,1,1
6201,6,0.5,1,0,0,4,830907.715917,831002.637346,0,0,1
6201,14,0.105,0,0,0,4,830907.715917,831008.8222962,0,1,0
6201,11,0.556,0,2,0,0,830907.715917,831010.8708125,0,1,0
6201,7,0.895,1,0,0,0,830907.715917,831014.08874,1,0,0
6201,4,0.222,1,0,3,4,830907.715917,831017.0541633,0,0,1
6201,12,0.077,0,0,3,4,830907.715917,831020.7044619,0,0,1
6201,1,0.895,1,2,3,0,830907.715917,831025.3709407,1,0,0
6201,12,0.077,0,0,3,4,830907.715917,831029.1221813,0,0,1
6201,3,0.923,1,2,0,0,830907.715917,831031.6053995,1,1,1
6201,2,0.778,1,2,0,4,830907.715917,831038.0052961,1,0,0
6201,14,0.105,0,0,0,4,830907.715917,831040.7055638,0,0,1
6201,8,0.105,0,2,3,4,830907.715917,831045.5874871,0,0,1
6201,3,0.923,1,2,0,0,830907.715917,831049.2042377,0,1,0
6201,8,0.105,0,2,3,4,830907.715917,831057.1375547,1,0,0
6201,14,0.105,0,0,0,4,830907.715917,831059.5045595,0,0,1
6201,5,0.833,1,0,3,0,830907.715917,831062.6720568,1,0,0
6201,9,0.5,0,2,3,0,830907.715917,831066.2044193,1,0,0
6201,2,0.778,1,2,0,4,830907.715917,831068.7220408,1,1,1
6201,12,0.077,0,0,3,4,830907.715917,831073.2542134,0,0,1
6201,6,0.5,1,0,0,4,830907.715917,831078.0886358,0,0,1
6201,2,0.778,1,2,0,4,830907.715917,831083.2541988,0,1,0
6201,14,0.105,0,0,0,4,830907.715917,831086.6055923,0,0,1
6201,13,0.444,0,0,3,0,830907.715917,831089.1553792,0,0,1
6201,1,0.895,1,2,3,0,830907.715917,831094.2876491,0,1,0
6201,10,0.167,0,2,0,4,830907.715917,831099.5543171,1,1,1
6201,3,0.923,1,2,0,0,830907.715917,831103.1209307,1,0,0
6201,10,0.167,0,2,0,4,830907.715917,831105.4555022,0,0,1
6201,7,0.895,1,0,0,0,830907.715917,831108.122037,1,0,0
6201,2,0.778,1,2,0,4,830907.715917,831110.7543052,1,1,1
6201,12,0.077,0,0,3,4,830907.715917,831113.6556366,0,0,1
6201,8,0.105,0,2,3,4,830907.715917,831116.4887683,0,1,0
6201,14,0.105,0,0,0,4,830907.715917,831120.8211087,0,0,1
6201,12,0.077,0,0,3,4,830907.715917,831124.0389933,0,0,1
6201,7,0.895,1,0,0,0,830907.715917,831127.1875975,1,1,1
6201,10,0.167,0,2,0,4,830907.715917,831136.1876492,1,1,1
6201,7,0.895,1,0,0,0,830907.715917,831138.4544175,1,1,1
6201,14,0.105,0,0,0,4,830907.715917,831140.9553766,0,0,1
6201,11,0.556,0,2,0,0,830907.715917,831144.504648,0,1,0
6201,13,0.444,0,0,3,0,830907.715917,831147.3555228,0,0,1
6201,3,0.923,1,2,0,0,830907.715917,831151.9221611,1,0,0
6201,4,0.222,1,0,3,4,830907.715917,831155.505512,0,0,1
6201,5,0.833,1,0,3,0,830907.715917,831158.2542845,1,0,0
6201,12,0.077,0,0,3,4,830907.715917,831160.5209427,0,0,1
6201,3,0.923,1,2,0,0,830907.715917,831165.2889915,1,0,0
6201,1,0.895,1,2,3,0,830907.715917,831169.0542446,1,1,1
6201,10,0.167,0,2,0,4,830907.715917,831172.4375491,0,0,1
6201,7,0.895,1,0,0,0,830907.715917,831174.8709934,0,1,0
6201,12,0.077,0,0,3,4,830907.715917,831178.6375825,1,0,0
6201,8,0.105,0,2,3,4,830907.715917,831182.6377397,0,1,0
6201,12,0.077,0,0,3,4,830907.715917,831186.9888346,0,1,0
6201,2,0.778,1,2,0,4,830907.715917,831190.9876251,1,0,0
6201,5,0.833,1,0,3,0,830907.715917,831195.4888617,1,0,0
6201,1,0.895,1,2,3,0,830907.715917,831202.5044684,1,1,1
6201,3,0.923,1,2,0,0,830907.715917,831205.3876256,0,1,0
6201,1,0.895,1,2,3,0,830907.715917,831211.1208895,1,0,0
6201,14,0.105,0,0,0,4,830907.715917,831213.9878766,0,1,0
6201,12,0.077,0,0,3,4,830907.715917,831216.4556651,0,0,1
6201,5,0.833,1,0,3,0,830907.715917,831220.3556895,1,0,0
6201,11,0.556,0,2,0,0,830907.715917,831223.4223488,1,0,0
6201,6,0.5,1,0,0,4,830907.715917,831231.5222057,1,1,1
6201,5,0.833,1,0,3,0,830907.715917,831234.2542974,1,1,1
6201,10,0.167,0,2,0,4,830907.715917,831238.8210451,0,0,1
6201,12,0.077,0,0,3,4,830907.715917,831242.8044268,0,0,1
6201,8,0.105,0,2,3,4,830907.715917,831246.2724799,0,1,0
6201,13,0.444,0,0,3,0,830907.715917,831249.1715805,0,1,0
6201,8,0.105,0,2,3,4,830907.715917,831254.3212493,1,1,1
6201,10,0.167,0,2,0,4,830907.715917,831258.9210041,0,0,1
6201,11,0.556,0,2,0,0,830907.715917,831262.4555811,1,0,0
6201,8,0.105,0,2,3,4,830907.715917,831265.8376999,0,1,0
6201,3,0.923,1,2,0,0,830907.715917,831270.1711955,1,0,0
6201,9,0.5,0,2,3,0,830907.715917,831272.9721435,1,1,1
6201,7,0.895,1,0,0,0,830907.715917,831276.2226902,1,0,0
6201,12,0.077,0,0,3,4,830907.715917,831279.0567649,0,1,0
6201,13,0.444,0,0,3,0,830907.715917,831281.1225946,1,1,1
6201,14,0.105,0,0,0,4,830907.715917,831283.3709961,0,1,0
6201,12,0.077,0,0,3,4,830907.715917,831286.0376678,0,1,0
6201,14,0.105,0,0,0,4,830907.715917,831288.1557594,0,1,0
6201,7,0.895,1,0,0,0,830907.715917,831290.3376591,1,1,1
6201,3,0.923,1,2,0,0,830907.715917,831293.9377872,1,1,1
6201,7,0.895,1,0,0,0,830907.715917,831296.5057465,1,1,1
6201,3,0.923,1,2,0,0,830907.715917,831299.4056446,1,1,1
6201,4,0.222,1,0,3,4,830907.715917,831305.3711704,0,0,1
6201,1,0.895,1,2,3,0,830907.715917,831310.9379332,1,1,1
6201,8,0.105,0,2,3,4,830907.715917,831313.487667,0,0,1
6201,1,0.895,1,2,3,0,830907.715917,831319.0877077,1,0,0
6201,3,0.923,1,2,0,0,830907.715917,831322.1224721,1,1,1
6201,13,0.444,0,0,3,0,830907.715917,831325.7877404,0,1,0
6201,14,0.105,0,0,0,4,830907.715917,831327.7056055,0,1,0
6201,7,0.895,1,0,0,0,830907.715917,831331.9383778,1,1,1
6201,3,0.923,1,2,0,0,830907.715917,831334.3880092,1,1,1
6201,12,0.077,0,0,3,4,830907.715917,831338.1045812,0,0,1
6201,8,0.105,0,2,3,4,830907.715917,831341.4045776,0,0,1
6201,13,0.444,0,0,3,0,830907.715917,831344.2224545,1,0,0
6201,14,0.105,0,0,0,4,830907.715917,831347.0388873,0,0,1
6201,1,0.895,1,2,3,0,830907.715917,831351.4214785,1,1,1
6201,12,0.077,0,0,3,4,830907.715917,831355.0392098,0,0,1
6201,1,0.895,1,2,3,0,830907.715917,831357.5212169,1,0,0
6201,7,0.895,1,0,0,0,830907.715917,831360.7890596,1,1,1
6201,4,0.222,1,0,3,4,830907.715917,831363.5891278,1,1,1
6201,3,0.923,1,2,0,0,830907.715917,831366.6558529,1,1,1
6201,7,0.895,1,0,0,0,830907.715917,831369.0389604,1,1,1
6201,4,0.222,1,0,3,4,830907.715917,831371.5710768,0,0,1
6201,1,0.895,1,2,3,0,830907.715917,831374.6379302,0,1,0
6201,6,0.5,1,0,0,4,830907.715917,831377.4723319,0,1,0
6201,11,0.556,0,2,0,0,830907.715917,831379.8890938,1,1,1
6201,12,0.077,0,0,3,4,830907.715917,831383.071172,0,0,1
6201,11,0.556,0,2,0,0,830907.715917,831385.538993,1,0,0
6201,7,0.895,1,0,0,0,830907.715917,831387.5224611,1,1,1
6201,1,0.895,1,2,3,0,830907.715917,831391.704553,1,0,0
6201,8,0.105,0,2,3,4,830907.715917,831395.6229084,0,0,1
6201,12,0.077,0,0,3,4,830907.715917,831398.9045265,0,0,1
6201,3,0.923,1,2,0,0,830907.715917,831402.087911,1,1,1
6201,2,0.778,1,2,0,4,830907.715917,831408.3546769,1,1,1
6201,5,0.833,1,0,3,0,830907.715917,831416.4546833,1,1,1
6201,11,0.556,0,2,0,0,830907.715917,831418.6228724,1,1,1
6201,14,0.105,0,0,0,4,830907.715917,831422.4557601,0,0,1
6201,7,0.895,1,0,0,0,830907.715917,831424.4217135,1,1,1
6201,3,0.923,1,2,0,0,830907.715917,831426.8046458,1,1,1
6201,14,0.105,0,0,0,4,830907.715917,831429.8879615,0,0,1
6201,10,0.167,0,2,0,4,830907.715917,831434.188685,0,1,0
6201,6,0.5,1,0,0,4,830907.715917,831437.1392284,1,1,1
6201,8,0.105,0,2,3,4,830907.715917,831441.8712397,0,0,1
6201,1,0.895,1,2,3,0,830907.715917,831444.4556516,1,1,1
6201,9,0.5,0,2,3,0,830907.715917,831447.4046579,0,1,0
6201,3,0.923,1,2,0,0,830907.715917,831449.6711809,1,1,1
6201,5,0.833,1,0,3,0,830907.715917,831452.6046736,1,1,1
6201,12,0.077,0,0,3,4,830907.715917,831455.0890993,0,0,1
6201,10,0.167,0,2,0,4,830907.715917,831457.8560056,0,0,1
6201,14,0.105,0,0,0,4,830907.715917,831459.8558509,1,1,1
6201,10,0.167,0,2,0,4,830907.715917,831463.5726033,0,0,1
6201,3,0.923,1,2,0,0,830907.715917,831466.2047419,1,1,1
6201,2,0.778,1,2,0,4,830907.715917,831468.9547202,1,1,1
6201,3,0.923,1,2,0,0,830907.715917,831471.2880656,1,1,1
6201,12,0.077,0,0,3,4,830907.715917,831473.8058255,0,0,1
6201,8,0.105,0,2,3,4,830907.715917,831476.9726093,0,0,1
6201,3,0.923,1,2,0,0,830907.715917,831479.1044933,1,1,1
6201,5,0.833,1,0,3,0,830907.715917,831487.7379499,0,1,0
6201,14,0.105,0,0,0,4,830907.715917,831490.906002,0,0,1
6201,1,0.895,1,2,3,0,830907.715917,831493.6212852,1,1,1
6201,11,0.556,0,2,0,0,830907.715917,831496.0057591,0,1,0
6201,14,0.105,0,0,0,4,830907.715917,831498.3378835,0,1,0
6201,4,0.222,1,0,3,4,830907.715917,831502.0055486,0,0,1
6201,10,0.167,0,2,0,4,830907.715917,831504.8047626,0,0,1
6201,12,0.077,0,0,3,4,830907.715917,831507.1378693,0,0,1
6201,4,0.222,1,0,3,4,830907.715917,831510.5216521,1,0,0
6201,8,0.105,0,2,3,4,830907.715917,831514.7215678,0,0,1
6201,3,0.923,1,2,0,0,830907.715917,831516.888061,1,1,1
6201,11,0.556,0,2,0,0,830907.715917,831518.8726796,0,1,0
6201,12,0.077,0,0,3,4,830907.715917,831521.2228142,0,0,1
6201,1,0.895,1,2,3,0,830907.715917,831524.3226929,1,0,0
6201,14,0.105,0,0,0,4,830907.715917,831527.4228933,0,1,0
6201,7,0.895,1,0,0,0,830907.715917,831529.7560232,1,1,1
6201,13,0.444,0,0,3,0,830907.715917,831531.887887,0,1,0
6201,14,0.105,0,0,0,4,830907.715917,831534.6725292,0,1,0
6201,7,0.895,1,0,0,0,830907.715917,831536.7059932,1,1,1
6201,3,0.923,1,2,0,0,830907.715917,831538.9379809,1,1,1
6201,1,0.895,1,2,3,0,830907.715917,831542.104718,1,1,1
6201,13,0.444,0,0,3,0,830907.715917,831544.405553,1,0,0
6201,2,0.778,1,2,0,4,830907.715917,831547.8546578,1,1,1
6201,1,0.895,1,2,3,0,830907.715917,831550.7047723,1,1,1
6201,12,0.077,0,0,3,4,830907.715917,831553.0046853,0,0,1
6201,9,0.5,0,2,3,0,830907.715917,831556.4379419,0,1,0
6201,5,0.833,1,0,3,0,830907.715917,831559.0552621,1,1,1
6201,7,0.895,1,0,0,0,830907.715917,831560.8880805,1,1,1
6201,3,0.923,1,2,0,0,830907.715917,831562.804891,1,1,1
6201,9,0.5,0,2,3,0,830907.715917,831565.8567779,0,0,1
6201,8,0.105,0,2,3,4,830907.715917,831568.3214545,0,0,1
6201,14,0.105,0,0,0,4,830907.715917,831570.9712967,1,0,0
6201,3,0.923,1,2,0,0,830907.715917,831575.3380906,1,1,1
6201,7,0.895,1,0,0,0,830907.715917,831577.2049384,1,1,1
6201,5,0.833,1,0,3,0,830907.715917,831582.6547609,0,1,0
6201,12,0.077,0,0,3,4,830907.715917,831584.8048006,0,0,1
6201,5,0.833,1,0,3,0,830907.715917,831588.1047959,1,0,0
6201,10,0.167,0,2,0,4,830907.715917,831591.0212584,0,0,1
6201,4,0.222,1,0,3,4,830907.715917,831594.7227829,0,1,0
6202,3,0.923,1,2,0,0,84931.4395811652,84936.4900919264,1,1,1
6202,8,0.105,0,2,3,4,84931.4395811652,84940.3690663724,0,1,0
6202,7,0.895,1,0,0,0,84931.4395811652,84942.7875377608,1,1,1
6202,8,0.105,0,2,3,4,84931.4395811652,84947.0159092488,0,0,1
6202,12,0.077,0,0,3,4,84931.4395811652,84950.4386355835,0,0,1
6202,9,0.5,0,2,3,0,84931.4395811652,84952.7980216365,1,1,1
6202,8,0.105,0,2,3,4,84931.4395811652,84955.9616774201,0,0,1
6202,12,0.077,0,0,3,4,84931.4395811652,84958.5550660145,1,0,0
6202,3,0.923,1,2,0,0,84931.4395811652,84960.8658218604,1,1,1
6202,1,0.895,1,2,3,0,84931.4395811652,84965.3406140497,1,0,0
6202,8,0.105,0,2,3,4,84931.4395811652,84968.1086542795,0,0,1
6202,3,0.923,1,2,0,0,84931.4395811652,84970.0510477202,1,1,1
6202,13,0.444,0,0,3,0,84931.4395811652,84972.4043129886,1,1,1
6202,5,0.833,1,0,3,0,84931.4395811652,84975.3697320099,1,1,1
6202,7,0.895,1,0,0,0,84931.4395811652,84977.5470420885,0,1,0
6202,6,0.5,1,0,0,4,84931.4395811652,84980.400367076,1,1,1
6202,4,0.222,1,0,3,4,84931.4395811652,84984.8039760973,0,0,1
6202,8,0.105,0,2,3,4,84931.4395811652,84987.9459587935,0,0,1
6202,1,0.895,1,2,3,0,84931.4395811652,84991.0140345125,1,0,0
6202,12,0.077,0,0,3,4,84931.4395811652,84995.6605587727,0,0,1
6202,3,0.923,1,2,0,0,84931.4395811652,84998.1162784808,1,0,0
6202,12,0.077,0,0,3,4,84931.4395811652,85000.5164504856,0,0,1
6202,2,0.778,1,2,0,4,84931.4395811652,85003.7847571416,0,1,0
6202,10,0.167,0,2,0,4,84931.4395811652,85006.2355740618,0,0,1
6202,1,0.895,1,2,3,0,84931.4395811652,85010.7168792315,1,0,0
6202,6,0.5,1,0,0,4,84931.4395811652,85013.5069104805,0,1,0
6202,14,0.105,0,0,0,4,84931.4395811652,85015.8398715816,0,0,1
6202,11,0.556,0,2,0,0,84931.4395811652,85017.9888234507,0,1,0
6202,7,0.895,1,0,0,0,84931.4395811652,85019.9877064118,1,1,1
6202,4,0.222,1,0,3,4,84931.4395811652,85022.9652520131,0,1,0
6202,12,0.077,0,0,3,4,84931.4395811652,85025.3165819704,0,0,1
6202,1,0.895,1,2,3,0,84931.4395811652,85029.2499155547,1,0,0
6202,12,0.077,0,0,3,4,84931.4395811652,85032.4589527555,0,1,0
6202,3,0.923,1,2,0,0,84931.4395811652,85037.8509026831,1,0,0
6202,2,0.778,1,2,0,4,84931.4395811652,85042.3665318166,1,0,0
6202,14,0.105,0,0,0,4,84931.4395811652,85044.4258693756,0,0,1
6202,8,0.105,0,2,3,4,84931.4395811652,85046.4800662968,0,1,0
6202,3,0.923,1,2,0,0,84931.4395811652,85048.6324247239,0,1,0
6202,8,0.105,0,2,3,4,84931.4395811652,85054.8184835718,1,0,0
6202,14,0.105,0,0,0,4,84931.4395811652,85056.8597814998,0,0,1
6202,5,0.833,1,0,3,0,84931.4395811652,85062.0580778101,1,0,0
6202,9,0.5,0,2,3,0,84931.4395811652,85065.3650068395,1,1,1
6202,2,0.778,1,2,0,4,84931.4395811652,85071.834912668,1,0,0
6202,12,0.077,0,0,3,4,84931.4395811652,85076.8656671724,0,0,1
6202,6,0.5,1,0,0,4,84931.4395811652,85080.1146963512,0,1,0
6202,2,0.778,1,2,0,4,84931.4395811652,85083.9077587319,0,0,1
6202,14,0.105,0,0,0,4,84931.4395811652,85086.540682085,0,0,1
6202,13,0.444,0,0,3,0,84931.4395811652,85090.2194875379,0,1,0
6202,1,0.895,1,2,3,0,84931.4395811652,85093.2372201884,0,0,1
6202,10,0.167,0,2,0,4,84931.4395811652,85096.3128598763,1,0,0
6202,3,0.923,1,2,0,0,84931.4395811652,85099.3250525067,1,0,0
6202,10,0.167,0,2,0,4,84931.4395811652,85101.6999155719,0,0,1
6202,7,0.895,1,0,0,0,84931.4395811652,85104.1084263543,1,1,1
6202,2,0.778,1,2,0,4,84931.4395811652,85108.8900312148,1,1,1
6202,12,0.077,0,0,3,4,84931.4395811652,85111.522709189,0,0,1
6202,8,0.105,0,2,3,4,84931.4395811652,85114.2762747984,0,0,1
6202,14,0.105,0,0,0,4,84931.4395811652,85116.5753335631,0,0,1
6202,12,0.077,0,0,3,4,84931.4395811652,85119.7283613922,0,0,1
6202,7,0.895,1,0,0,0,84931.4395811652,85121.7295164187,1,1,1
6202,10,0.167,0,2,0,4,84931.4395811652,85124.5843290802,1,0,0
6202,7,0.895,1,0,0,0,84931.4395811652,85126.6063748562,1,1,1
6202,14,0.105,0,0,0,4,84931.4395811652,85129.0690267764,0,0,1
6202,11,0.556,0,2,0,0,84931.4395811652,85132.5148971034,0,1,0
6202,13,0.444,0,0,3,0,84931.4395811652,85135.6977482289,0,1,0
6202,3,0.923,1,2,0,0,84931.4395811652,85138.3019334972,1,1,1
6202,4,0.222,1,0,3,4,84931.4395811652,85141.6888632521,0,1,0
6202,5,0.833,1,0,3,0,84931.4395811652,85144.632174896,1,1,1
6202,12,0.077,0,0,3,4,84931.4395811652,85148.6171397028,0,0,1
6202,3,0.923,1,2,0,0,84931.4395811652,85151.6283477372,1,0,0
6202,1,0.895,1,2,3,0,84931.4395811652,85154.1889096242,1,1,1
6202,10,0.167,0,2,0,4,84931.4395811652,85156.6615652713,0,0,1
6202,7,0.895,1,0,0,0,84931.4395811652,85158.659880815,0,1,0
6202,12,0.077,0,0,3,4,84931.4395811652,85160.8626996955,1,0,0
6202,8,0.105,0,2,3,4,84931.4395811652,85167.5064621591,0,0,1
6202,12,0.077,0,0,3,4,84931.4395811652,85170.7915011271,0,1,0
6202,2,0.778,1,2,0,4,84931.4395811652,85177.2524535329,1,0,0
6202,5,0.833,1,0,3,0,84931.4395811652,85181.8844853767,1,0,0
6202,1,0.895,1,2,3,0,84931.4395811652,85187.2432530199,1,1,1
6202,3,0.923,1,2,0,0,84931.4395811652,85189.6839731267,0,1,0
6202,1,0.895,1,2,3,0,84931.4395811652,85192.1234998773,1,1,1
6202,14,0.105,0,0,0,4,84931.4395811652,85194.4904475034,0,0,1
6202,12,0.077,0,0,3,4,84931.4395811652,85197.3630342254,0,0,1
6202,5,0.833,1,0,3,0,84931.4395811652,85200.5127047776,1,1,1
6202,11,0.556,0,2,0,0,84931.4395811652,85203.7177615005,1,0,0
6202,6,0.5,1,0,0,4,84931.4395811652,85206.2779240051,1,1,1
6202,5,0.833,1,0,3,0,84931.4395811652,85208.5997219039,1,1,1
6202,10,0.167,0,2,0,4,84931.4395811652,85211.7372727207,0,1,0
6202,12,0.077,0,0,3,4,84931.4395811652,85213.8637332303,0,0,1
6202,8,0.105,0,2,3,4,84931.4395811652,85216.6016712463,0,0,1
6202,13,0.444,0,0,3,0,84931.4395811652,85219.6564711769,0,0,1
6202,8,0.105,0,2,3,4,84931.4395811652,85222.1595876949,1,0,0
6202,10,0.167,0,2,0,4,84931.4395811652,85226.1025215169,0,0,1
6202,11,0.556,0,2,0,0,84931.4395811652,85229.530501083,1,1,1
6202,8,0.105,0,2,3,4,84931.4395811652,85232.548444205,0,1,0
6202,3,0.923,1,2,0,0,84931.4395811652,85235.626398737,1,1,1
6202,9,0.5,0,2,3,0,84931.4395811652,85241.276128324,1,0,0
6202,7,0.895,1,0,0,0,84931.4395811652,85243.5019382199,1,1,1
6202,12,0.077,0,0,3,4,84931.4395811652,85245.8350598269,0,0,1
6202,13,0.444,0,0,3,0,84931.4395811652,85249.009422278,1,0,0
6202,14,0.105,0,0,0,4,84931.4395811652,85251.8123039236,0,1,0
6202,12,0.077,0,0,3,4,84931.4395811652,85256.3852678857,0,1,0
6202,14,0.105,0,0,0,4,84931.4395811652,85258.6626494561,0,0,1
6202,7,0.895,1,0,0,0,84931.4395811652,85260.644489018,1,1,1
6202,3,0.923,1,2,0,0,84931.4395811652,85263.1570493746,1,1,1
6202,7,0.895,1,0,0,0,84931.4395811652,85265.1867395434,1,1,1
6202,3,0.923,1,2,0,0,84931.4395811652,85267.4014403094,1,1,1
6202,4,0.222,1,0,3,4,84931.4395811652,85271.2402786985,0,0,1
6202,1,0.895,1,2,3,0,84931.4395811652,85275.5379326087,1,0,0
6202,8,0.105,0,2,3,4,84931.4395811652,85278.9176296735,0,0,1
6202,1,0.895,1,2,3,0,84931.4395811652,85282.1886618497,1,1,1
6202,3,0.923,1,2,0,0,84931.4395811652,85284.7498811606,1,1,1
6202,13,0.444,0,0,3,0,84931.4395811652,85287.9774932401,0,0,1
6202,14,0.105,0,0,0,4,84931.4395811652,85289.995675581,0,0,1
6202,7,0.895,1,0,0,0,84931.4395811652,85291.7264113653,1,1,1
6202,3,0.923,1,2,0,0,84931.4395811652,85294.5659848645,1,1,1
6202,12,0.077,0,0,3,4,84931.4395811652,85297.9603345093,0,0,1
6202,8,0.105,0,2,3,4,84931.4395811652,85304.1104523563,0,1,0
6202,13,0.444,0,0,3,0,84931.4395811652,85306.2780923823,1,0,0
6202,14,0.105,0,0,0,4,84931.4395811652,85308.1855034084,0,0,1
6202,1,0.895,1,2,3,0,84931.4395811652,85311.9269027392,1,1,1
6202,12,0.077,0,0,3,4,84931.4395811652,85317.1786547005,0,0,1
6202,1,0.895,1,2,3,0,84931.4395811652,85319.446312146,1,1,1
6202,7,0.895,1,0,0,0,84931.4395811652,85322.258042492,1,1,1
6202,4,0.222,1,0,3,4,84931.4395811652,85327.6324243817,1,1,1
6202,3,0.923,1,2,0,0,84931.4395811652,85330.2884664021,1,1,1
6202,7,0.895,1,0,0,0,84931.4395811652,85332.1599898152,1,1,1
6202,4,0.222,1,0,3,4,84931.4395811652,85334.8628246095,0,1,0
6202,1,0.895,1,2,3,0,84931.4395811652,85337.8568088895,0,1,0
6202,6,0.5,1,0,0,4,84931.4395811652,85339.8357507894,0,1,0
6202,11,0.556,0,2,0,0,84931.4395811652,85342.2524237588,1,1,1
6202,12,0.077,0,0,3,4,84931.4395811652,85345.7677479654,0,0,1
6202,11,0.556,0,2,0,0,84931.4395811652,85348.372930492,1,1,1
6202,7,0.895,1,0,0,0,84931.4395811652,85350.3464850064,1,1,1
6202,1,0.895,1,2,3,0,84931.4395811652,85353.150369386,1,1,1
6202,8,0.105,0,2,3,4,84931.4395811652,85357.6497665478,0,0,1
6202,12,0.077,0,0,3,4,84931.4395811652,85360.9453143742,0,0,1
6202,3,0.923,1,2,0,0,84931.4395811652,85363.3828014337,1,1,1
6202,2,0.778,1,2,0,4,84931.4395811652,85366.9296977322,1,0,0
6202,5,0.833,1,0,3,0,84931.4395811652,85368.8090592404,1,1,1
6202,11,0.556,0,2,0,0,84931.4395811652,85371.2002699511,1,1,1
6202,14,0.105,0,0,0,4,84931.4395811652,85373.5742500627,0,0,1
6202,7,0.895,1,0,0,0,84931.4395811652,85375.3147318747,1,1,1
6202,3,0.923,1,2,0,0,84931.4395811652,85377.453678648,1,1,1
6202,14,0.105,0,0,0,4,84931.4395811652,85379.4320894069,0,0,1
6202,10,0.167,0,2,0,4,84931.4395811652,85384.4492994722,0,0,1
6202,6,0.5,1,0,0,4,84931.4395811652,85388.0480237754,1,0,0
6202,8,0.105,0,2,3,4,84931.4395811652,85392.4012045129,0,0,1
6202,1,0.895,1,2,3,0,84931.4395811652,85395.4103485579,1,1,1
6202,9,0.5,0,2,3,0,84931.4395811652,85400.2036450239,0,1,0
6202,3,0.923,1,2,0,0,84931.4395811652,85403.6531915862,1,1,1
6202,5,0.833,1,0,3,0,84931.4395811652,85405.678137762,1,1,1
6202,12,0.077,0,0,3,4,84931.4395811652,85408.0818511635,0,0,1
6202,10,0.167,0,2,0,4,84931.4395811652,85411.8713430579,0,1,0
6202,14,0.105,0,0,0,4,84931.4395811652,85413.7814200563,1,0,0
6202,10,0.167,0,2,0,4,84931.4395811652,85417.7615922733,0,1,0
6202,3,0.923,1,2,0,0,84931.4395811652,85424.8303781197,1,1,1
6202,2,0.778,1,2,0,4,84931.4395811652,85428.4827914748,1,1,1
6202,3,0.923,1,2,0,0,84931.4395811652,85433.9442555144,1,1,1
6202,12,0.077,0,0,3,4,84931.4395811652,85439.2060717773,0,0,1
6202,8,0.105,0,2,3,4,84931.4395811652,85441.291368513,0,0,1
6202,3,0.923,1,2,0,0,84931.4395811652,85444.5755621728,1,1,1
6202,5,0.833,1,0,3,0,84931.4395811652,85453.9459474999,0,1,0
6202,14,0.105,0,0,0,4,84931.4395811652,85456.6009549588,0,0,1
6202,1,0.895,1,2,3,0,84931.4395811652,85461.3698579506,1,1,1
6202,11,0.556,0,2,0,0,84931.4395811652,85463.92218236,0,1,0
6202,14,0.105,0,0,0,4,84931.4395811652,85466.4654578645,0,0,1
6202,4,0.222,1,0,3,4,84931.4395811652,85471.130272268,0,0,1
6202,10,0.167,0,2,0,4,84931.4395811652,85474.7919275458,0,0,1
6202,12,0.077,0,0,3,4,84931.4395811652,85478.4011357247,0,0,1
6202,4,0.222,1,0,3,4,84931.4395811652,85481.9380330875,1,0,0
6202,8,0.105,0,2,3,4,84931.4395811652,85485.0672382821,0,0,1
6202,3,0.923,1,2,0,0,84931.4395811652,85488.5652480432,1,1,1
6202,11,0.556,0,2,0,0,84931.4395811652,85491.3648086883,0,1,0
6202,12,0.077,0,0,3,4,84931.4395811652,85493.6540533215,0,0,1
6202,1,0.895,1,2,3,0,84931.4395811652,85497.2430517887,1,1,1
6202,14,0.105,0,0,0,4,84931.4395811652,85499.8791592503,0,0,1
6202,7,0.895,1,0,0,0,84931.4395811652,85502.0238996362,1,1,1
6202,13,0.444,0,0,3,0,84931.4395811652,85522.7832455114,0,0,1
6202,14,0.105,0,0,0,4,84931.4395811652,85524.7700549382,0,0,1
6202,7,0.895,1,0,0,0,84931.4395811652,85526.5148656182,1,1,1
6202,3,0.923,1,2,0,0,84931.4395811652,85529.3040970756,1,1,1
6202,1,0.895,1,2,3,0,84931.4395811652,85532.3871183236,1,1,1
6202,13,0.444,0,0,3,0,84931.4395811652,85535.0421083288,1,0,0
6202,2,0.778,1,2,0,4,84931.4395811652,85540.0254728678,1,1,1
6202,1,0.895,1,2,3,0,84931.4395811652,85542.9588358839,1,1,1
6202,12,0.077,0,0,3,4,84931.4395811652,85546.0035995758,0,1,0
6202,9,0.5,0,2,3,0,84931.4395811652,85549.1157993587,0,1,0
6202,5,0.833,1,0,3,0,84931.4395811652,85553.3117558421,1,1,1
6202,7,0.895,1,0,0,0,84931.4395811652,85555.5366776511,1,1,1
6202,3,0.923,1,2,0,0,84931.4395811652,85557.7758684002,1,1,1
6202,9,0.5,0,2,3,0,84931.4395811652,85560.5901001057,0,1,0
6202,8,0.105,0,2,3,4,84931.4395811652,85563.5960340327,0,0,1
6202,14,0.105,0,0,0,4,84931.4395811652,85565.8119760672,1,0,0
6202,3,0.923,1,2,0,0,84931.4395811652,85568.3209519061,1,1,1
6202,7,0.895,1,0,0,0,84931.4395811652,85570.6498103532,1,1,1
6202,5,0.833,1,0,3,0,84931.4395811652,85574.3789017221,0,0,1
6202,12,0.077,0,0,3,4,84931.4395811652,85594.7756510841,0,0,1
6202,5,0.833,1,0,3,0,84931.4395811652,85597.8909959613,1,1,1
6202,10,0.167,0,2,0,4,84931.4395811652,85600.6740751489,0,1,0
6202,4,0.222,1,0,3,4,84931.4395811652,85603.5374736782,0,1,0
6204,3,0.923,1,2,0,0,1065045.6235874,1065052.7920293,1,1,1
6204,8,0.105,0,2,3,4,1065045.6235874,1065056.5573904,0,0,1
6204,7,0.895,1,0,0,0,1065045.6235874,1065058.5908726,1,1,1
6204,8,0.105,0,2,3,4,1065045.6235874,1065061.0086185,0,0,1
6204,12,0.077,0,0,3,4,1065045.6235874,1065063.1408832,0,0,1
6204,9,0.5,0,2,3,0,1065045.6235874,1065065.2739896,1,0,0
6204,8,0.105,0,2,3,4,1065045.6235874,1065069.0585262,0,1,0
6204,12,0.077,0,0,3,4,1065045.6235874,1065073.907575,1,1,1
6204,3,0.923,1,2,0,0,1065045.6235874,1065077.9241519,1,1,1
6204,1,0.895,1,2,3,0,1065045.6235874,1065081.6574811,1,1,1
6204,8,0.105,0,2,3,4,1065045.6235874,1065085.9908095,0,0,1
6204,3,0.923,1,2,0,0,1065045.6235874,1065089.2407311,1,1,1
6204,13,0.444,0,0,3,0,1065045.6235874,1065091.775354,1,0,0
6204,5,0.833,1,0,3,0,1065045.6235874,1065094.2408256,1,1,1
6204,7,0.895,1,0,0,0,1065045.6235874,1065096.2760883,0,1,0
6204,6,0.5,1,0,0,4,1065045.6235874,1065099.5741551,1,1,1
6204,4,0.222,1,0,3,4,1065045.6235874,1065103.3076148,0,1,0
6204,8,0.105,0,2,3,4,1065045.6235874,1065109.8408391,0,0,1
6204,1,0.895,1,2,3,0,1065045.6235874,1065114.9907589,1,1,1
6204,12,0.077,0,0,3,4,1065045.6235874,1065119.1922347,0,1,0
6204,3,0.923,1,2,0,0,1065045.6235874,1065122.3241236,1,1,1
6204,12,0.077,0,0,3,4,1065045.6235874,1065127.3252725,0,0,1
6204,2,0.778,1,2,0,4,1065045.6235874,1065130.8576211,0,1,0
6204,10,0.167,0,2,0,4,1065045.6235874,1065134.5589694,0,0,1
6204,1,0.895,1,2,3,0,1065045.6235874,1065138.3087494,1,1,1
6204,6,0.5,1,0,0,4,1065045.6235874,1065141.4075986,0,1,0
6204,14,0.105,0,0,0,4,1065045.6235874,1065144.6576158,0,1,0
6204,11,0.556,0,2,0,0,1065045.6235874,1065147.3741974,0,0,1
6204,7,0.895,1,0,0,0,1065045.6235874,1065150.2754127,1,1,1
6204,4,0.222,1,0,3,4,1065045.6235874,1065155.3086076,0,0,1
6204,12,0.077,0,0,3,4,1065045.6235874,1065158.6740945,0,0,1
6204,1,0.895,1,2,3,0,1065045.6235874,1065162.0409435,1,1,1
6204,12,0.077,0,0,3,4,1065045.6235874,1065165.7743536,0,1,0
6204,3,0.923,1,2,0,0,1065045.6235874,1065169.5255724,1,1,1
6204,2,0.778,1,2,0,4,1065045.6235874,1065172.4920704,1,1,1
6204,14,0.105,0,0,0,4,1065045.6235874,1065175.7742435,0,1,0
6204,8,0.105,0,2,3,4,1065045.6235874,1065179.1921255,0,1,0
6204,3,0.923,1,2,0,0,1065045.6235874,1065182.9074649,0,1,0
6204,8,0.105,0,2,3,4,1065045.6235874,1065187.0410177,1,1,1
6204,14,0.105,0,0,0,4,1065045.6235874,1065190.0409572,0,0,1
6204,5,0.833,1,0,3,0,1065045.6235874,1065193.0408303,1,1,1
6204,9,0.5,0,2,3,0,1065045.6235874,1065196.15759,1,0,0
6204,2,0.778,1,2,0,4,1065045.6235874,1065200.1589157,1,1,1
6204,12,0.077,0,0,3,4,1065045.6235874,1065205.0921067,0,0,1
6204,6,0.5,1,0,0,4,1065045.6235874,1065207.8587599,0,1,0
6204,2,0.778,1,2,0,4,1065045.6235874,1065210.5743584,0,1,0
6204,14,0.105,0,0,0,4,1065045.6235874,1065215.5577107,0,0,1
6204,13,0.444,0,0,3,0,1065045.6235874,1065218.8741594,0,1,0
6204,1,0.895,1,2,3,0,1065045.6235874,1065224.0754957,0,1,0
6204,10,0.167,0,2,0,4,1065045.6235874,1065226.7918211,1,1,1
6204,3,0.923,1,2,0,0,1065045.6235874,1065229.3256545,1,1,1
6204,10,0.167,0,2,0,4,1065045.6235874,1065233.6576169,0,0,1
6204,7,0.895,1,0,0,0,1065045.6235874,1065236.5755032,1,1,1
6204,2,0.778,1,2,0,4,1065045.6235874,1065239.8243144,1,1,1
6204,12,0.077,0,0,3,4,1065045.6235874,1065244.2253625,0,0,1
6204,8,0.105,0,2,3,4,1065045.6235874,1065247.3076515,0,0,1
6204,14,0.105,0,0,0,4,1065045.6235874,1065249.9254624,0,0,1
6204,12,0.077,0,0,3,4,1065045.6235874,1065252.6253355,0,0,1
6204,7,0.895,1,0,0,0,1065045.6235874,1065254.7911154,1,1,1
6204,10,0.167,0,2,0,4,1065045.6235874,1065258.7243811,1,1,1
6204,7,0.895,1,0,0,0,1065045.6235874,1065260.6756448,1,1,1
6204,14,0.105,0,0,0,4,1065045.6235874,1065262.9744107,0,0,1
6204,11,0.556,0,2,0,0,1065045.6235874,1065265.4588358,0,0,1
6204,13,0.444,0,0,3,0,1065045.6235874,1065268.3926207,0,1,0
6204,3,0.923,1,2,0,0,1065045.6235874,1065271.0575796,1,1,1
6204,4,0.222,1,0,3,4,1065045.6235874,1065273.7077228,0,1,0
6204,5,0.833,1,0,3,0,1065045.6235874,1065276.7089534,1,1,1
6204,12,0.077,0,0,3,4,1065045.6235874,1065278.8076371,0,0,1
6204,3,0.923,1,2,0,0,1065045.6235874,1065281.1242722,1,1,1
6204,1,0.895,1,2,3,0,1065045.6235874,1065285.4242214,1,1,1
6204,10,0.167,0,2,0,4,1065045.6235874,1065289.1576142,0,1,0
6204,7,0.895,1,0,0,0,1065045.6235874,1065291.0744477,0,1,0
6204,12,0.077,0,0,3,4,1065045.6235874,1065293.8923874,1,0,0
6204,8,0.105,0,2,3,4,1065045.6235874,1065297.524407,0,1,0
6204,12,0.077,0,0,3,4,1065045.6235874,1065301.8920788,0,1,0
6204,2,0.778,1,2,0,4,1065045.6235874,1065304.5911289,1,1,1
6204,5,0.833,1,0,3,0,1065045.6235874,1065307.0745223,1,1,1
6204,1,0.895,1,2,3,0,1065045.6235874,1065310.5088702,1,0,0
6204,3,0.923,1,2,0,0,1065045.6235874,1065312.8090815,0,1,0
6204,1,0.895,1,2,3,0,1065045.6235874,1065316.3410952,1,1,1
6204,14,0.105,0,0,0,4,1065045.6235874,1065318.9746372,0,0,1
6204,12,0.077,0,0,3,4,1065045.6235874,1065321.5244426,0,0,1
6204,5,0.833,1,0,3,0,1065045.6235874,1065324.3909572,1,0,0
6204,11,0.556,0,2,0,0,1065045.6235874,1065326.9911192,1,1,1
6204,6,0.5,1,0,0,4,1065045.6235874,1065329.8579746,1,1,1
6204,5,0.833,1,0,3,0,1065045.6235874,1065333.0255458,1,1,1
6204,10,0.167,0,2,0,4,1065045.6235874,1065335.9434123,0,0,1
6204,12,0.077,0,0,3,4,1065045.6235874,1065338.7591079,0,0,1
6204,8,0.105,0,2,3,4,1065045.6235874,1065342.0756153,0,0,1
6204,13,0.444,0,0,3,0,1065045.6235874,1065344.340997,0,0,1
6204,8,0.105,0,2,3,4,1065045.6235874,1065348.0255533,1,0,0
6204,10,0.167,0,2,0,4,1065045.6235874,1065352.9591597,0,0,1
6204,11,0.556,0,2,0,0,1065045.6235874,1065355.1758171,1,0,0
6204,8,0.105,0,2,3,4,1065045.6235874,1065360.0745223,0,1,0
6204,3,0.923,1,2,0,0,1065045.6235874,1065363.1245627,1,1,1
6204,9,0.5,0,2,3,0,1065045.6235874,1065367.858059,1,1,1
6204,7,0.895,1,0,0,0,1065045.6235874,1065369.9423384,1,1,1
6204,12,0.077,0,0,3,4,1065045.6235874,1065379.125105,0,1,0
6204,13,0.444,0,0,3,0,1065045.6235874,1065382.6409834,1,0,0
6204,14,0.105,0,0,0,4,1065045.6235874,1065385.4911443,0,0,1
6204,12,0.077,0,0,3,4,1065045.6235874,1065391.942298,0,0,1
6204,14,0.105,0,0,0,4,1065045.6235874,1065394.2745792,0,0,1
6204,7,0.895,1,0,0,0,1065045.6235874,1065396.2910865,1,1,1
6204,3,0.923,1,2,0,0,1065045.6235874,1065398.6744955,1,1,1
6204,7,0.895,1,0,0,0,1065045.6235874,1065400.7413415,1,1,1
6204,3,0.923,1,2,0,0,1065045.6235874,1065403.2911479,1,1,1
6204,4,0.222,1,0,3,4,1065045.6235874,1065407.2911834,0,0,1
6204,1,0.895,1,2,3,0,1065045.6235874,1065411.540969,1,1,1
6204,8,0.105,0,2,3,4,1065045.6235874,1065416.6246301,0,0,1
6204,1,0.895,1,2,3,0,1065045.6235874,1065419.742321,1,1,1
6204,3,0.923,1,2,0,0,1065045.6235874,1065422.624883,1,1,1
6204,13,0.444,0,0,3,0,1065045.6235874,1065425.1421707,0,0,1
6204,14,0.105,0,0,0,4,1065045.6235874,1065427.3578534,0,0,1
6204,7,0.895,1,0,0,0,1065045.6235874,1065429.3078233,1,1,1
6204,3,0.923,1,2,0,0,1065045.6235874,1065431.6423398,1,1,1
6204,12,0.077,0,0,3,4,1065045.6235874,1065434.2925039,0,0,1
6204,8,0.105,0,2,3,4,1065045.6235874,1065438.207872,0,0,1
6204,13,0.444,0,0,3,0,1065045.6235874,1065440.4925521,1,0,0
6204,14,0.105,0,0,0,4,1065045.6235874,1065442.9256858,0,0,1
6204,1,0.895,1,2,3,0,1065045.6235874,1065445.7077397,1,1,1
6204,12,0.077,0,0,3,4,1065045.6235874,1065448.3412542,0,0,1
6204,1,0.895,1,2,3,0,1065045.6235874,1065450.8925666,1,1,1
6204,7,0.895,1,0,0,0,1065045.6235874,1065452.9092264,1,1,1
6204,4,0.222,1,0,3,4,1065045.6235874,1065456.0412234,1,0,0
6204,3,0.923,1,2,0,0,1065045.6235874,1065458.2744465,1,1,1
6204,7,0.895,1,0,0,0,1065045.6235874,1065460.1912325,1,1,1
6204,4,0.222,1,0,3,4,1065045.6235874,1065463.6078893,0,0,1
6204,1,0.895,1,2,3,0,1065045.6235874,1065466.0589342,0,1,0
6204,6,0.5,1,0,0,4,1065045.6235874,1065469.1423503,0,1,0
6204,11,0.556,0,2,0,0,1065045.6235874,1065471.3255728,1,1,1
6204,12,0.077,0,0,3,4,1065045.6235874,1065473.492489,0,0,1
6204,11,0.556,0,2,0,0,1065045.6235874,1065476.009823,1,1,1
6204,7,0.895,1,0,0,0,1065045.6235874,1065477.9422583,1,1,1
6204,1,0.895,1,2,3,0,1065045.6235874,1065480.6077725,1,1,1
6204,8,0.105,0,2,3,4,1065045.6235874,1065484.2591125,0,0,1
6204,12,0.077,0,0,3,4,1065045.6235874,1065486.5245838,0,0,1
6204,3,0.923,1,2,0,0,1065045.6235874,1065489.1413161,1,1,1
6204,2,0.778,1,2,0,4,1065045.6235874,1065492.4577979,1,1,1
6204,5,0.833,1,0,3,0,1065045.6235874,1065495.9252895,1,1,1
6204,11,0.556,0,2,0,0,1065045.6235874,1065497.9089974,1,1,1
6204,14,0.105,0,0,0,4,1065045.6235874,1065500.3423335,0,0,1
6204,7,0.895,1,0,0,0,1065045.6235874,1065502.3747328,1,1,1
6204,3,0.923,1,2,0,0,1065045.6235874,1065504.7757648,1,1,1
6204,14,0.105,0,0,0,4,1065045.6235874,1065506.9925944,0,0,1
6204,10,0.167,0,2,0,4,1065045.6235874,1065509.0744687,0,1,0
6204,6,0.5,1,0,0,4,1065045.6235874,1065511.0080071,1,1,1
6204,8,0.105,0,2,3,4,1065045.6235874,1065513.6412506,0,0,1
6204,1,0.895,1,2,3,0,1065045.6235874,1065516.3592769,1,1,1
6204,9,0.5,0,2,3,0,1065045.6235874,1065520.1256582,0,1,0
6204,3,0.923,1,2,0,0,1065045.6235874,1065522.0411692,1,1,1
6204,5,0.833,1,0,3,0,1065045.6235874,1065524.5756373,1,1,1
6204,12,0.077,0,0,3,4,1065045.6235874,1065527.2412002,0,0,1
6204,10,0.167,0,2,0,4,1065045.6235874,1065532.8078852,0,0,1
6204,14,0.105,0,0,0,4,1065045.6235874,1065535.0090407,1,0,0
6204,10,0.167,0,2,0,4,1065045.6235874,1065537.4756341,0,1,0
6204,3,0.923,1,2,0,0,1065045.6235874,1065540.3245252,1,1,1
6204,2,0.778,1,2,0,4,1065045.6235874,1065543.6248909,1,1,1
6204,3,0.923,1,2,0,0,1065045.6235874,1065546.6412517,1,1,1
6204,12,0.077,0,0,3,4,1065045.6235874,1065549.1246769,0,0,1
6204,8,0.105,0,2,3,4,1065045.6235874,1065552.3092751,0,1,0
6204,3,0.923,1,2,0,0,1065045.6235874,1065554.3913601,1,1,1
6204,5,0.833,1,0,3,0,1065045.6235874,1065557.9413335,0,1,0
6204,14,0.105,0,0,0,4,1065045.6235874,1065560.8912765,0,0,1
6204,1,0.895,1,2,3,0,1065045.6235874,1065565.7412411,1,0,0
6204,11,0.556,0,2,0,0,1065045.6235874,1065567.7912,0,1,0
6204,14,0.105,0,0,0,4,1065045.6235874,1065571.0745804,0,0,1
6204,4,0.222,1,0,3,4,1065045.6235874,1065574.0912188,0,1,0
6204,10,0.167,0,2,0,4,1065045.6235874,1065577.2913135,0,0,1
6204,12,0.077,0,0,3,4,1065045.6235874,1065581.9258066,0,0,1
6204,4,0.222,1,0,3,4,1065045.6235874,1065585.4424882,1,0,0
6204,8,0.105,0,2,3,4,1065045.6235874,1065588.9746911,0,0,1
6204,3,0.923,1,2,0,0,1065045.6235874,1065591.2913901,1,1,1
6204,11,0.556,0,2,0,0,1065045.6235874,1065593.5414115,0,1,0
6204,12,0.077,0,0,3,4,1065045.6235874,1065598.7412878,0,0,1
6204,1,0.895,1,2,3,0,1065045.6235874,1065601.5580533,1,1,1
6204,14,0.105,0,0,0,4,1065045.6235874,1065604.4425271,0,1,0
6204,7,0.895,1,0,0,0,1065045.6235874,1065606.4591003,1,1,1
6204,13,0.444,0,0,3,0,1065045.6235874,1065609.2592097,0,0,1
6204,14,0.105,0,0,0,4,1065045.6235874,1065611.625835,0,1,0
6204,7,0.895,1,0,0,0,1065045.6235874,1065613.5746739,1,1,1
6204,3,0.923,1,2,0,0,1065045.6235874,1065616.2746678,1,1,1
6204,1,0.895,1,2,3,0,1065045.6235874,1065618.8079696,1,1,1
6204,13,0.444,0,0,3,0,1065045.6235874,1065622.1912939,1,0,0
6204,2,0.778,1,2,0,4,1065045.6235874,1065625.1257478,1,1,1
6204,1,0.895,1,2,3,0,1065045.6235874,1065628.0914991,1,1,1
6204,12,0.077,0,0,3,4,1065045.6235874,1065631.0912976,0,0,1
6204,9,0.5,0,2,3,0,1065045.6235874,1065633.8913339,0,0,1
6204,5,0.833,1,0,3,0,1065045.6235874,1065637.2424625,1,1,1
6204,7,0.895,1,0,0,0,1065045.6235874,1065639.4745603,1,1,1
6204,3,0.923,1,2,0,0,1065045.6235874,1065641.8412562,1,1,1
6204,9,0.5,0,2,3,0,1065045.6235874,1065644.5592232,0,0,1
6204,8,0.105,0,2,3,4,1065045.6235874,1065648.9249517,0,0,1
6204,14,0.105,0,0,0,4,1065045.6235874,1065652.2749655,1,0,0
6204,3,0.923,1,2,0,0,1065045.6235874,1065654.5087937,1,1,1
6204,7,0.895,1,0,0,0,1065045.6235874,1065656.7413654,1,1,1
6204,5,0.833,1,0,3,0,1065045.6235874,1065658.7579381,0,1,0
6204,12,0.077,0,0,3,4,1065045.6235874,1065662.1412888,0,0,1
6204,5,0.833,1,0,3,0,1065045.6235874,1065665.2591238,1,0,0
6204,10,0.167,0,2,0,4,1065045.6235874,1065669.5746389,0,1,0
6204,4,0.222,1,0,3,4,1065045.6235874,1065676.0081177,0,1,0
6205,3,0.923,1,2,0,0,83119.731856821,83123.4075573037,1,0,0
6205,8,0.105,0,2,3,4,83119.731856821,83126.1517846723,0,1,0
6205,7,0.895,1,0,0,0,83119.731856821,83128.3114289733,1,1,1
6205,8,0.105,0,2,3,4,83119.731856821,83130.8968600842,0,0,1
6205,12,0.077,0,0,3,4,83119.731856821,83133.2850794022,0,0,1
6205,9,0.5,0,2,3,0,83119.731856821,83135.3927052543,1,0,0
6205,8,0.105,0,2,3,4,83119.731856821,83137.4018513214,0,1,0
6205,12,0.077,0,0,3,4,83119.731856821,83139.8477652967,1,0,0
6205,3,0.923,1,2,0,0,83119.731856821,83142.6712155731,1,0,0
6205,1,0.895,1,2,3,0,83119.731856821,83145.3690281487,1,1,1
6205,8,0.105,0,2,3,4,83119.731856821,83147.6252381485,0,1,0
6205,3,0.923,1,2,0,0,83119.731856821,83149.5593122021,1,1,1
6205,13,0.444,0,0,3,0,83119.731856821,83151.4206790437,1,0,0
6205,5,0.833,1,0,3,0,83119.731856821,83154.4961227178,1,1,1
6205,7,0.895,1,0,0,0,83119.731856821,83156.6957869228,0,1,0
6205,6,0.5,1,0,0,4,83119.731856821,83162.6303171675,1,1,1
6205,4,0.222,1,0,3,4,83119.731856821,83165.5993129413,0,1,0
6205,8,0.105,0,2,3,4,83119.731856821,83168.902504123,0,0,1
6205,1,0.895,1,2,3,0,83119.731856821,83171.4737320505,1,1,1
6205,12,0.077,0,0,3,4,83119.731856821,83173.9480753218,0,1,0
6205,3,0.923,1,2,0,0,83119.731856821,83175.9280559585,1,1,1
6205,12,0.077,0,0,3,4,83119.731856821,83178.073888586,0,0,1
6205,2,0.778,1,2,0,4,83119.731856821,83180.3570959962,0,1,0
6205,10,0.167,0,2,0,4,83119.731856821,83183.4370759142,0,0,1
6205,1,0.895,1,2,3,0,83119.731856821,83186.3683768871,1,0,0
6205,6,0.5,1,0,0,4,83119.731856821,83188.5409759204,0,1,0
6205,14,0.105,0,0,0,4,83119.731856821,83190.6044521925,0,0,1
6205,11,0.556,0,2,0,0,83119.731856821,83193.5490015301,0,0,1
6205,7,0.895,1,0,0,0,83119.731856821,83195.4937353291,1,1,1
6205,4,0.222,1,0,3,4,83119.731856821,83199.7629510534,0,0,1
6205,12,0.077,0,0,3,4,83119.731856821,83201.855151965,0,0,1
6205,1,0.895,1,2,3,0,83119.731856821,83205.074009735,1,1,1
6205,12,0.077,0,0,3,4,83119.731856821,83207.1083804668,0,0,1
6205,3,0.923,1,2,0,0,83119.731856821,83209.3007415073,1,1,1
6205,2,0.778,1,2,0,4,83119.731856821,83212.3278997653,1,0,0
6205,14,0.105,0,0,0,4,83119.731856821,83214.3848240653,0,0,1
6205,8,0.105,0,2,3,4,83119.731856821,83217.1082274905,0,0,1
6205,3,0.923,1,2,0,0,83119.731856821,83219.5332463387,0,1,0
6205,8,0.105,0,2,3,4,83119.731856821,83222.7565582177,1,0,0
6205,14,0.105,0,0,0,4,83119.731856821,83226.0888063433,0,0,1
6205,5,0.833,1,0,3,0,83119.731856821,83228.5020220594,1,1,1
6205,9,0.5,0,2,3,0,83119.731856821,83231.7774550559,1,0,0
6205,2,0.778,1,2,0,4,83119.731856821,83235.4617297412,1,1,1
6205,12,0.077,0,0,3,4,83119.731856821,83237.9227572286,0,0,1
6205,6,0.5,1,0,0,4,83119.731856821,83242.7979422461,0,0,1
6205,2,0.778,1,2,0,4,83119.731856821,83245.543904373,0,1,0
6205,14,0.105,0,0,0,4,83119.731856821,83247.5216249301,0,0,1
6205,13,0.444,0,0,3,0,83119.731856821,83249.7241344261,0,1,0
6205,1,0.895,1,2,3,0,83119.731856821,83252.104928404,0,0,1
6205,10,0.167,0,2,0,4,83119.731856821,83255.3641051861,1,0,0
6205,3,0.923,1,2,0,0,83119.731856821,83257.5227234849,1,1,1
6205,10,0.167,0,2,0,4,83119.731856821,83260.6567909676,0,1,0
6205,7,0.895,1,0,0,0,83119.731856821,83262.6143888083,1,1,1
6205,2,0.778,1,2,0,4,83119.731856821,83265.2704908692,1,0,0
6205,12,0.077,0,0,3,4,83119.731856821,83269.3811810387,0,0,1
6205,8,0.105,0,2,3,4,83119.731856821,83271.7686539556,0,0,1
6205,14,0.105,0,0,0,4,83119.731856821,83273.6243196062,0,0,1
6205,12,0.077,0,0,3,4,83119.731856821,83277.2627428071,0,1,0
6205,7,0.895,1,0,0,0,83119.731856821,83279.3505286239,1,1,1
6205,10,0.167,0,2,0,4,83119.731856821,83282.1269843714,1,0,0
6205,7,0.895,1,0,0,0,83119.731856821,83283.9662456225,1,1,1
6205,14,0.105,0,0,0,4,83119.731856821,83286.8564911067,0,0,1
6205,11,0.556,0,2,0,0,83119.731856821,83289.4543677133,0,0,1
6205,13,0.444,0,0,3,0,83119.731856821,83291.7363540508,0,0,1
6205,3,0.923,1,2,0,0,83119.731856821,83294.080410442,1,1,1
6205,4,0.222,1,0,3,4,83119.731856821,83298.8839327301,0,0,1
6205,5,0.833,1,0,3,0,83119.731856821,83302.7088309769,1,1,1
6205,12,0.077,0,0,3,4,83119.731856821,83305.0478613946,0,0,1
6205,3,0.923,1,2,0,0,83119.731856821,83307.6793907368,1,1,1
6205,1,0.895,1,2,3,0,83119.731856821,83311.4728668959,1,1,1
6205,10,0.167,0,2,0,4,83119.731856821,83314.2887042906,0,0,1
6205,7,0.895,1,0,0,0,83119.731856821,83316.3498017297,0,1,0
6205,12,0.077,0,0,3,4,83119.731856821,83319.2265360174,1,0,0
6205,8,0.105,0,2,3,4,83119.731856821,83322.6805851156,0,0,1
6205,12,0.077,0,0,3,4,83119.731856821,83325.6230119496,0,0,1
6205,2,0.778,1,2,0,4,83119.731856821,83328.7813054732,1,1,1
6205,5,0.833,1,0,3,0,83119.731856821,83331.4701242736,1,1,1
6205,1,0.895,1,2,3,0,83119.731856821,83335.4138153011,1,1,1
6205,3,0.923,1,2,0,0,83119.731856821,83337.5319766696,0,1,0
6205,1,0.895,1,2,3,0,83119.731856821,83340.399648394,1,1,1
6205,14,0.105,0,0,0,4,83119.731856821,83342.3824996466,0,0,1
6205,12,0.077,0,0,3,4,83119.731856821,83344.5061544732,0,0,1
6205,5,0.833,1,0,3,0,83119.731856821,83347.2490173753,1,0,0
6205,11,0.556,0,2,0,0,83119.731856821,83349.5423780322,1,0,0
6205,6,0.5,1,0,0,4,83119.731856821,83352.5368328975,1,0,0
6205,5,0.833,1,0,3,0,83119.731856821,83354.6796131855,1,1,1
6205,10,0.167,0,2,0,4,83119.731856821,83356.8894237926,0,0,1
6205,12,0.077,0,0,3,4,83119.731856821,83359.8829809916,0,0,1
6205,8,0.105,0,2,3,4,83119.731856821,83363.4008807603,0,0,1
6205,13,0.444,0,0,3,0,83119.731856821,83366.0068832496,0,0,1
6205,8,0.105,0,2,3,4,83119.731856821,83368.2379322394,1,0,0
6205,10,0.167,0,2,0,4,83119.731856821,83370.4190804926,0,0,1
6205,11,0.556,0,2,0,0,83119.731856821,83374.270234882,1,0,0
6205,8,0.105,0,2,3,4,83119.731856821,83377.085293706,0,0,1
6205,3,0.923,1,2,0,0,83119.731856821,83379.8704499386,1,1,1
6205,9,0.5,0,2,3,0,83119.731856821,83382.4298429067,1,1,1
6205,7,0.895,1,0,0,0,83119.731856821,83384.5529932879,1,1,1
6205,12,0.077,0,0,3,4,83119.731856821,83387.1461663006,0,0,1
6205,13,0.444,0,0,3,0,83119.731856821,83389.5195092712,1,0,0
6205,14,0.105,0,0,0,4,83119.731856821,83391.5221074729,0,0,1
6205,12,0.077,0,0,3,4,83119.731856821,83394.8225984687,0,1,0
6205,14,0.105,0,0,0,4,83119.731856821,83396.9730032741,0,0,1
6205,7,0.895,1,0,0,0,83119.731856821,83398.7735888962,1,1,1
6205,3,0.923,1,2,0,0,83119.731856821,83401.244337053,1,1,1
6205,7,0.895,1,0,0,0,83119.731856821,83404.9787202077,1,1,1
6205,3,0.923,1,2,0,0,83119.731856821,83407.5533266188,1,1,1
6205,4,0.222,1,0,3,4,83119.731856821,83411.6726262405,0,1,0
6205,1,0.895,1,2,3,0,83119.731856821,83414.423925427,1,1,1
6205,8,0.105,0,2,3,4,83119.731856821,83416.7972478637,0,0,1
6205,1,0.895,1,2,3,0,83119.731856821,83419.6656358733,1,1,1
6205,3,0.923,1,2,0,0,83119.731856821,83421.9829573436,1,1,1
6205,13,0.444,0,0,3,0,83119.731856821,83424.006131715,0,0,1
6205,14,0.105,0,0,0,4,83119.731856821,83426.0619882609,0,0,1
6205,7,0.895,1,0,0,0,83119.731856821,83427.8351589533,1,1,1
6205,3,0.923,1,2,0,0,83119.731856821,83429.7905682403,1,1,1
6205,12,0.077,0,0,3,4,83119.731856821,83431.7612843987,0,0,1
6205,8,0.105,0,2,3,4,83119.731856821,83434.1005259716,0,0,1
6205,13,0.444,0,0,3,0,83119.731856821,83436.0417211238,1,0,0
6205,14,0.105,0,0,0,4,83119.731856821,83438.0322814244,0,0,1
6205,1,0.895,1,2,3,0,83119.731856821,83440.2602048377,1,1,1
6205,12,0.077,0,0,3,4,83119.731856821,83442.262736647,0,1,0
6205,1,0.895,1,2,3,0,83119.731856821,83444.2311807478,1,1,1
6205,7,0.895,1,0,0,0,83119.731856821,83446.058281922,1,1,1
6205,4,0.222,1,0,3,4,83119.731856821,83448.1460937481,1,0,0
6205,3,0.923,1,2,0,0,83119.731856821,83450.5689856438,1,1,1
6205,7,0.895,1,0,0,0,83119.731856821,83452.3277084593,1,1,1
6205,4,0.222,1,0,3,4,83119.731856821,83455.4497315386,0,1,0
6205,1,0.895,1,2,3,0,83119.731856821,83457.9859686156,0,1,0
6205,6,0.5,1,0,0,4,83119.731856821,83460.0776315434,0,0,1
6205,11,0.556,0,2,0,0,83119.731856821,83462.7088080476,1,1,1
6205,12,0.077,0,0,3,4,83119.731856821,83464.8092132124,0,0,1
6205,11,0.556,0,2,0,0,83119.731856821,83468.0159208301,1,1,1
6205,7,0.895,1,0,0,0,83119.731856821,83469.8156601202,1,1,1
6205,1,0.895,1,2,3,0,83119.731856821,83472.6600739694,1,1,1
6205,8,0.105,0,2,3,4,83119.731856821,83474.9860565684,0,0,1
6205,12,0.077,0,0,3,4,83119.731856821,83477.5399242511,0,0,1
6205,3,0.923,1,2,0,0,83119.731856821,83479.6768421582,1,1,1
6205,2,0.778,1,2,0,4,83119.731856821,83485.2860619414,1,1,1
6205,5,0.833,1,0,3,0,83119.731856821,83487.7247240865,1,1,1
6205,11,0.556,0,2,0,0,83119.731856821,83489.7218979603,1,1,1
6205,14,0.105,0,0,0,4,83119.731856821,83491.9639845162,0,0,1
6205,7,0.895,1,0,0,0,83119.731856821,83493.988563395,1,1,1
6205,3,0.923,1,2,0,0,83119.731856821,83496.1485783299,1,1,1
6205,14,0.105,0,0,0,4,83119.731856821,83498.3652797157,0,0,1
6205,10,0.167,0,2,0,4,83119.731856821,83500.8668206012,0,0,1
6205,6,0.5,1,0,0,4,83119.731856821,83503.2346810649,1,1,1
6205,8,0.105,0,2,3,4,83119.731856821,83506.0666942503,0,1,0
6205,1,0.895,1,2,3,0,83119.731856821,83509.0178910418,1,1,1
6205,9,0.5,0,2,3,0,83119.731856821,83512.4882541912,0,0,1
6205,3,0.923,1,2,0,0,83119.731856821,83514.8029524771,1,1,1
6205,5,0.833,1,0,3,0,83119.731856821,83517.9585557393,1,1,1
6205,12,0.077,0,0,3,4,83119.731856821,83521.0416352244,0,0,1
6205,10,0.167,0,2,0,4,83119.731856821,83523.5629750779,0,0,1
6205,14,0.105,0,0,0,4,83119.731856821,83525.6547967999,1,0,0
6205,10,0.167,0,2,0,4,83119.731856821,83527.6818191929,0,0,1
6205,3,0.923,1,2,0,0,83119.731856821,83530.0058343181,1,1,1
6205,2,0.778,1,2,0,4,83119.731856821,83533.0611330309,1,0,0
6205,3,0.923,1,2,0,0,83119.731856821,83535.1066611089,1,1,1
6205,12,0.077,0,0,3,4,83119.731856821,83538.0622267944,0,0,1
6205,8,0.105,0,2,3,4,83119.731856821,83540.5191601977,0,0,1
6205,3,0.923,1,2,0,0,83119.731856821,83542.746835495,1,1,1
6205,5,0.833,1,0,3,0,83119.731856821,83545.0324545922,0,1,0
6205,14,0.105,0,0,0,4,83119.731856821,83551.1906242289,0,0,1
6205,1,0.895,1,2,3,0,83119.731856821,83553.9396260328,1,1,1
6205,11,0.556,0,2,0,0,83119.731856821,83557.6988040127,0,1,0
6205,14,0.105,0,0,0,4,83119.731856821,83570.2412214012,0,0,1
6205,4,0.222,1,0,3,4,83119.731856821,83572.7398903019,0,1,0
6205,10,0.167,0,2,0,4,83119.731856821,83574.9442252468,0,0,1
6205,12,0.077,0,0,3,4,83119.731856821,83577.4171356058,0,0,1
6205,4,0.222,1,0,3,4,83119.731856821,83580.5914409924,1,1,1
6205,8,0.105,0,2,3,4,83119.731856821,83583.3523058185,0,0,1
6205,3,0.923,1,2,0,0,83119.731856821,83586.0931232185,1,1,1
6205,11,0.556,0,2,0,0,83119.731856821,83589.284609522,0,0,1
6205,12,0.077,0,0,3,4,83119.731856821,83591.8529647802,0,0,1
6205,1,0.895,1,2,3,0,83119.731856821,83594.5047229298,1,1,1
6205,14,0.105,0,0,0,4,83119.731856821,83596.3729658343,0,0,1
6205,7,0.895,1,0,0,0,83119.731856821,83598.328033919,1,1,1
6205,13,0.444,0,0,3,0,83119.731856821,83600.365663012,0,0,1
6205,14,0.105,0,0,0,4,83119.731856821,83602.2385020505,0,0,1
6205,7,0.895,1,0,0,0,83119.731856821,83603.9552183232,1,1,1
6205,3,0.923,1,2,0,0,83119.731856821,83606.4084443609,1,1,1
6205,1,0.895,1,2,3,0,83119.731856821,83609.0836301313,1,0,0
6205,13,0.444,0,0,3,0,83119.731856821,83611.2661798118,1,0,0
6205,2,0.778,1,2,0,4,83119.731856821,83613.7967126177,1,1,1
6205,1,0.895,1,2,3,0,83119.731856821,83616.4743603828,1,0,0
6205,12,0.077,0,0,3,4,83119.731856821,83618.4610110605,0,0,1
6205,9,0.5,0,2,3,0,83119.731856821,83620.6830388967,0,0,1
6205,5,0.833,1,0,3,0,83119.731856821,83622.5501175385,1,1,1
6205,7,0.895,1,0,0,0,83119.731856821,83624.3544923188,1,1,1
6205,3,0.923,1,2,0,0,83119.731856821,83626.5104473924,1,1,1
6205,9,0.5,0,2,3,0,83119.731856821,83629.2271229399,0,1,0
6205,8,0.105,0,2,3,4,83119.731856821,83631.9766048909,0,0,1
6205,14,0.105,0,0,0,4,83119.731856821,83633.9764368566,1,0,0
6205,3,0.923,1,2,0,0,83119.731856821,83636.2591103897,1,1,1
6205,7,0.895,1,0,0,0,83119.731856821,83638.1881150067,1,1,1
6205,5,0.833,1,0,3,0,83119.731856821,83640.4350478658,0,1,0
6205,12,0.077,0,0,3,4,83119.731856821,83643.2375301204,0,0,1
6205,5,0.833,1,0,3,0,83119.731856821,83645.2094772762,1,1,1
6205,10,0.167,0,2,0,4,83119.731856821,83647.307871504,0,0,1
6205,4,0.222,1,0,3,4,83119.731856821,83649.5161236008,0,0,1
6206,3,0.923,1,2,0,0,196211.173550681,196216.674357489,1,1,1
6206,8,0.105,0,2,3,4,196211.173550681,196219.717700926,0,0,1
6206,7,0.895,1,0,0,0,196211.173550681,196222.695097657,1,0,0
6206,8,0.105,0,2,3,4,196211.173550681,196224.973790653,0,0,1
6206,12,0.077,0,0,3,4,196211.173550681,196226.919808652,0,1,0
6206,9,0.5,0,2,3,0,196211.173550681,196229.780844083,1,0,0
6206,8,0.105,0,2,3,4,196211.173550681,196233.125189467,0,0,1
6206,12,0.077,0,0,3,4,196211.173550681,196235.718689286,1,1,1
6206,3,0.923,1,2,0,0,196211.173550681,196238.829243969,1,1,1
6206,1,0.895,1,2,3,0,196211.173550681,196241.290756948,1,0,0
6206,8,0.105,0,2,3,4,196211.173550681,196245.399127861,0,1,0
6206,3,0.923,1,2,0,0,196211.173550681,196248.010634799,1,1,1
6206,13,0.444,0,0,3,0,196211.173550681,196250.090034569,1,1,1
6206,5,0.833,1,0,3,0,196211.173550681,196252.900634187,1,0,0
6206,7,0.895,1,0,0,0,196211.173550681,196255.063144184,0,1,0
6206,6,0.5,1,0,0,4,196211.173550681,196258.506656888,1,0,0
6206,4,0.222,1,0,3,4,196211.173550681,196261.417102468,0,0,1
6206,8,0.105,0,2,3,4,196211.173550681,196265.325676392,0,0,1
6206,1,0.895,1,2,3,0,196211.173550681,196268.186721063,1,1,1
6206,12,0.077,0,0,3,4,196211.173550681,196271.380103292,0,1,0
6206,3,0.923,1,2,0,0,196211.173550681,196274.473745992,1,0,0
6206,12,0.077,0,0,3,4,196211.173550681,196276.719965804,0,1,0
6206,2,0.778,1,2,0,4,196211.173550681,196279.79646141,0,0,1
6206,10,0.167,0,2,0,4,196211.173550681,196282.34128619,0,0,1
6206,1,0.895,1,2,3,0,196211.173550681,196284.802941536,1,0,0
6206,6,0.5,1,0,0,4,196211.173550681,196289.477162133,0,1,0
6206,14,0.105,0,0,0,4,196211.173550681,196291.655730249,0,1,0
6206,11,0.556,0,2,0,0,196211.173550681,196293.784912856,0,1,0
6206,7,0.895,1,0,0,0,196211.173550681,196296.229919737,1,1,1
6206,4,0.222,1,0,3,4,196211.173550681,196298.991229328,0,0,1
6206,12,0.077,0,0,3,4,196211.173550681,196301.868852308,0,0,1
6206,1,0.895,1,2,3,0,196211.173550681,196304.712934346,1,0,0
6206,12,0.077,0,0,3,4,196211.173550681,196307.839712787,0,0,1
6206,3,0.923,1,2,0,0,196211.173550681,196311.51563016,1,1,1
6206,2,0.778,1,2,0,4,196211.173550681,196313.811278602,1,0,0
6206,14,0.105,0,0,0,4,196211.173550681,196317.504110012,0,1,0
6206,8,0.105,0,2,3,4,196211.173550681,196325.204694301,0,1,0
6206,3,0.923,1,2,0,0,196211.173550681,196327.516703394,0,1,0
6206,8,0.105,0,2,3,4,196211.173550681,196329.778920066,1,0,0
6206,14,0.105,0,0,0,4,196211.173550681,196332.789360478,0,0,1
6206,5,0.833,1,0,3,0,196211.173550681,196335.71683303,1,0,0
6206,9,0.5,0,2,3,0,196211.173550681,196338.428037061,1,0,0
6206,2,0.778,1,2,0,4,196211.173550681,196341.438757417,1,0,0
6206,12,0.077,0,0,3,4,196211.173550681,196344.033576533,0,0,1
6206,6,0.5,1,0,0,4,196211.173550681,196346.678047071,0,1,0
6206,2,0.778,1,2,0,4,196211.173550681,196348.940170656,0,0,1
6206,14,0.105,0,0,0,4,196211.173550681,196351.103641978,0,0,1
6206,13,0.444,0,0,3,0,196211.173550681,196353.580978648,0,0,1
6206,1,0.895,1,2,3,0,196211.173550681,196356.773517964,0,0,1
6206,10,0.167,0,2,0,4,196211.173550681,196359.835904451,1,0,0
6206,3,0.923,1,2,0,0,196211.173550681,196362.513895396,1,1,1
6206,10,0.167,0,2,0,4,196211.173550681,196365.922897621,0,0,1
6206,7,0.895,1,0,0,0,196211.173550681,196369.133776704,1,0,0
6206,2,0.778,1,2,0,4,196211.173550681,196371.246248902,1,0,0
6206,12,0.077,0,0,3,4,196211.173550681,196375.10521829,0,0,1
6206,8,0.105,0,2,3,4,196211.173550681,196377.731667335,0,0,1
6206,14,0.105,0,0,0,4,196211.173550681,196381.291804856,0,0,1
6206,12,0.077,0,0,3,4,196211.173550681,196386.464840139,0,0,1
6206,7,0.895,1,0,0,0,196211.173550681,196389.476140576,1,1,1
6206,10,0.167,0,2,0,4,196211.173550681,196392.070864894,1,1,1
6206,7,0.895,1,0,0,0,196211.173550681,196394.265915152,1,1,1
6206,14,0.105,0,0,0,4,196211.173550681,196396.777372159,0,0,1
6206,11,0.556,0,2,0,0,196211.173550681,196399.006356581,0,1,0
6206,13,0.444,0,0,3,0,196211.173550681,196401.384675485,0,0,1
6206,3,0.923,1,2,0,0,196211.173550681,196403.91336446,1,1,1
6206,4,0.222,1,0,3,4,196211.173550681,196407.290134774,0,0,1
6206,5,0.833,1,0,3,0,196211.173550681,196411.165759472,1,0,0
6206,12,0.077,0,0,3,4,196211.173550681,196413.776669219,0,0,1
6206,3,0.923,1,2,0,0,196211.173550681,196418.300972857,1,0,0
6206,1,0.895,1,2,3,0,196211.173550681,196420.812680719,1,0,0
6206,10,0.167,0,2,0,4,196211.173550681,196423.057732158,0,0,1
6206,7,0.895,1,0,0,0,196211.173550681,196425.054364956,0,1,0
6206,12,0.077,0,0,3,4,196211.173550681,196428.713457615,1,0,0
6206,8,0.105,0,2,3,4,196211.173550681,196431.291606363,0,1,0
6206,12,0.077,0,0,3,4,196211.173550681,196435.000382613,0,0,1
6206,2,0.778,1,2,0,4,196211.173550681,196439.591764028,1,0,0
6206,5,0.833,1,0,3,0,196211.173550681,196443.333729408,1,1,1
6206,1,0.895,1,2,3,0,196211.173550681,196445.795448409,1,0,0
6206,3,0.923,1,2,0,0,196211.173550681,196447.992032542,0,1,0
6206,1,0.895,1,2,3,0,196211.173550681,196450.851234304,1,0,0
6206,14,0.105,0,0,0,4,196211.173550681,196453.180646822,0,1,0
6206,12,0.077,0,0,3,4,196211.173550681,196455.494182945,0,1,0
6206,5,0.833,1,0,3,0,196211.173550681,196458.054485421,1,1,1
6206,11,0.556,0,2,0,0,196211.173550681,196460.34867699,1,1,1
6206,6,0.5,1,0,0,4,196211.173550681,196463.243664038,1,1,1
6206,5,0.833,1,0,3,0,196211.173550681,196465.339620214,1,1,1
6206,10,0.167,0,2,0,4,196211.173550681,196467.718806671,0,1,0
6206,12,0.077,0,0,3,4,196211.173550681,196470.129815391,0,0,1
6206,8,0.105,0,2,3,4,196211.173550681,196472.225523449,0,0,1
6206,13,0.444,0,0,3,0,196211.173550681,196474.470909247,0,0,1
6206,8,0.105,0,2,3,4,196211.173550681,196476.966400195,1,0,0
6206,10,0.167,0,2,0,4,196211.173550681,196479.245078133,0,0,1
6206,11,0.556,0,2,0,0,196211.173550681,196483.386924279,1,0,0
6206,8,0.105,0,2,3,4,196211.173550681,196486.645507495,0,0,1
6206,3,0.923,1,2,0,0,196211.173550681,196489.091884664,1,1,1
6206,9,0.5,0,2,3,0,196211.173550681,196491.15426328,1,0,0
6206,7,0.895,1,0,0,0,196211.173550681,196493.249511381,1,1,1
6206,12,0.077,0,0,3,4,196211.173550681,196495.661423588,0,0,1
6206,13,0.444,0,0,3,0,196211.173550681,196498.621984311,1,0,0
6206,14,0.105,0,0,0,4,196211.173550681,196501.400044011,0,0,1
6206,12,0.077,0,0,3,4,196211.173550681,196503.528857694,0,0,1
6206,14,0.105,0,0,0,4,196211.173550681,196505.807512018,0,0,1
6206,7,0.895,1,0,0,0,196211.173550681,196508.036403696,1,1,1
6206,3,0.923,1,2,0,0,196211.173550681,196510.647813441,1,1,1
6206,7,0.895,1,0,0,0,196211.173550681,196512.810192706,1,1,1
6206,3,0.923,1,2,0,0,196211.173550681,196515.321885852,1,1,1
6206,4,0.222,1,0,3,4,196211.173550681,196520.227717486,0,0,1
6206,1,0.895,1,2,3,0,196211.173550681,196522.806465136,1,0,0
6206,8,0.105,0,2,3,4,196211.173550681,196525.302314057,0,0,1
6206,1,0.895,1,2,3,0,196211.173550681,196527.780139431,1,1,1
6206,3,0.923,1,2,0,0,196211.173550681,196530.840679587,1,1,1
6206,13,0.444,0,0,3,0,196211.173550681,196533.086682767,0,0,1
6206,14,0.105,0,0,0,4,196211.173550681,196536.362889462,0,0,1
6206,7,0.895,1,0,0,0,196211.173550681,196539.556942462,1,1,1
6206,3,0.923,1,2,0,0,196211.173550681,196542.965804372,1,1,1
6206,12,0.077,0,0,3,4,196211.173550681,196546.475712788,0,0,1
6206,8,0.105,0,2,3,4,196211.173550681,196549.752654251,0,0,1
6206,13,0.444,0,0,3,0,196211.173550681,196552.680008049,1,0,0
6206,14,0.105,0,0,0,4,196211.173550681,196555.939481405,0,0,1
6206,1,0.895,1,2,3,0,196211.173550681,196558.949785268,1,1,1
6206,12,0.077,0,0,3,4,196211.173550681,196561.04540024,0,0,1
6206,1,0.895,1,2,3,0,196211.173550681,196563.691448458,1,1,1
6206,7,0.895,1,0,0,0,196211.173550681,196565.686059019,1,1,1
6206,4,0.222,1,0,3,4,196211.173550681,196568.497582658,1,0,0
6206,3,0.923,1,2,0,0,196211.173550681,196570.627533572,1,1,1
6206,7,0.895,1,0,0,0,196211.173550681,196572.473508827,1,1,1
6206,4,0.222,1,0,3,4,196211.173550681,196576.431178048,0,0,1
6206,1,0.895,1,2,3,0,196211.173550681,196578.810600987,0,1,0
6206,6,0.5,1,0,0,4,196211.173550681,196581.388952677,0,1,0
6206,11,0.556,0,2,0,0,196211.173550681,196583.649934925,1,1,1
6206,12,0.077,0,0,3,4,196211.173550681,196585.829104339,0,0,1
6206,11,0.556,0,2,0,0,196211.173550681,196587.742141286,1,1,1
6206,7,0.895,1,0,0,0,196211.173550681,196589.505231842,1,1,1
6206,1,0.895,1,2,3,0,196211.173550681,196592.083848076,1,0,0
6206,8,0.105,0,2,3,4,196211.173550681,196595.326290695,0,0,1
6206,12,0.077,0,0,3,4,196211.173550681,196597.290277141,0,0,1
6206,3,0.923,1,2,0,0,196211.173550681,196599.335202024,1,1,1
6206,2,0.778,1,2,0,4,196211.173550681,196601.747423607,1,1,1
6206,5,0.833,1,0,3,0,196211.173550681,196604.773927956,1,0,0
6206,11,0.556,0,2,0,0,196211.173550681,196606.853886929,1,1,1
6206,14,0.105,0,0,0,4,196211.173550681,196609.897792993,0,0,1
6206,7,0.895,1,0,0,0,196211.173550681,196612.858189788,1,0,0
6206,3,0.923,1,2,0,0,196211.173550681,196615.203609432,1,1,1
6206,14,0.105,0,0,0,4,196211.173550681,196617.232757851,0,0,1
6206,10,0.167,0,2,0,4,196211.173550681,196621.191669367,0,1,0
6206,6,0.5,1,0,0,4,196211.173550681,196623.304377704,1,1,1
6206,8,0.105,0,2,3,4,196211.173550681,196626.546548251,0,0,1
6206,1,0.895,1,2,3,0,196211.173550681,196631.087394264,1,0,0
6206,9,0.5,0,2,3,0,196211.173550681,196634.098971222,0,0,1
6206,3,0.923,1,2,0,0,196211.173550681,196636.310750712,1,1,1
6206,5,0.833,1,0,3,0,196211.173550681,196639.870216779,1,0,0
6206,12,0.077,0,0,3,4,196211.173550681,196641.9663273,0,0,1
6206,10,0.167,0,2,0,4,196211.173550681,196644.561409933,0,0,1
6206,14,0.105,0,0,0,4,196211.173550681,196647.70410789,1,1,1
6206,10,0.167,0,2,0,4,196211.173550681,196651.497591214,0,0,1
6206,3,0.923,1,2,0,0,196211.173550681,196654.524899119,1,0,0
6206,2,0.778,1,2,0,4,196211.173550681,196656.96956993,1,0,0
6206,3,0.923,1,2,0,0,196211.173550681,196659.165129769,1,1,1
6206,12,0.077,0,0,3,4,196211.173550681,196661.194496872,0,0,1
6206,8,0.105,0,2,3,4,196211.173550681,196665.269279616,0,1,0
6206,3,0.923,1,2,0,0,196211.173550681,196667.298861982,1,1,1
6206,5,0.833,1,0,3,0,196211.173550681,196669.876757822,0,1,0
6206,14,0.105,0,0,0,4,196211.173550681,196671.905641355,0,0,1
6206,1,0.895,1,2,3,0,196211.173550681,196674.550648851,1,1,1
6206,11,0.556,0,2,0,0,196211.173550681,196676.546293974,0,1,0
6206,14,0.105,0,0,0,4,196211.173550681,196678.458360013,0,0,1
6206,4,0.222,1,0,3,4,196211.173550681,196681.468864765,0,0,1
6206,10,0.167,0,2,0,4,196211.173550681,196685.112522164,0,1,0
6206,12,0.077,0,0,3,4,196211.173550681,196687.341079825,0,0,1
6206,4,0.222,1,0,3,4,196211.173550681,196689.936434189,1,0,0
6206,8,0.105,0,2,3,4,196211.173550681,196692.596458398,0,0,1
6206,3,0.923,1,2,0,0,196211.173550681,196695.342302955,1,1,1
6206,11,0.556,0,2,0,0,196211.173550681,196697.205276435,0,1,0
6206,12,0.077,0,0,3,4,196211.173550681,196699.183931546,0,0,1
6206,1,0.895,1,2,3,0,196211.173550681,196701.462718655,1,1,1
6206,14,0.105,0,0,0,4,196211.173550681,196703.391532407,0,0,1
6206,7,0.895,1,0,0,0,196211.173550681,196705.555253214,1,1,1
6206,13,0.444,0,0,3,0,196211.173550681,196707.700575734,0,0,1
6206,14,0.105,0,0,0,4,196211.173550681,196712.739743964,0,0,1
6206,7,0.895,1,0,0,0,196211.173550681,196714.835621769,1,1,1
6206,3,0.923,1,2,0,0,196211.173550681,196717.463585524,1,1,1
6206,1,0.895,1,2,3,0,196211.173550681,196720.240926882,1,1,1
6206,13,0.444,0,0,3,0,196211.173550681,196722.336469644,1,0,0
6206,2,0.778,1,2,0,4,196211.173550681,196724.61667735,1,1,1
6206,1,0.895,1,2,3,0,196211.173550681,196727.392825694,1,1,1
6206,12,0.077,0,0,3,4,196211.173550681,196729.473403762,0,0,1
6206,9,0.5,0,2,3,0,196211.173550681,196732.21709535,0,1,0
6206,5,0.833,1,0,3,0,196211.173550681,196734.713358026,1,1,1
6206,7,0.895,1,0,0,0,196211.173550681,196736.757979351,1,1,1
6206,3,0.923,1,2,0,0,196211.173550681,196738.870260242,1,1,1
6206,9,0.5,0,2,3,0,196211.173550681,196741.099779912,0,0,1
6206,8,0.105,0,2,3,4,196211.173550681,196744.142253742,0,0,1
6206,14,0.105,0,0,0,4,196211.173550681,196746.239158579,1,0,0
6206,3,0.923,1,2,0,0,196211.173550681,196748.734063287,1,1,1
6206,7,0.895,1,0,0,0,196211.173550681,196750.795587696,1,1,1
6206,5,0.833,1,0,3,0,196211.173550681,196753.790676353,0,1,0
6206,12,0.077,0,0,3,4,196211.173550681,196756.035803767,0,0,1
6206,5,0.833,1,0,3,0,196211.173550681,196759.013143003,1,0,0
6206,10,0.167,0,2,0,4,196211.173550681,196761.940496459,0,0,1
6206,4,0.222,1,0,3,4,196211.173550681,196764.269324106,0,0,1
6207,3,0.923,1,2,0,0,1776286.3441748,1776288.4208992,1,1,1
6207,8,0.105,0,2,3,4,1776286.3441748,1776291.3549632,0,0,1
6207,7,0.895,1,0,0,0,1776286.3441748,1776293.6048837,1,1,1
6207,8,0.105,0,2,3,4,1776286.3441748,1776296.4037969,0,0,1
6207,12,0.077,0,0,3,4,1776286.3441748,1776298.8715219,0,1,0
6207,9,0.5,0,2,3,0,1776286.3441748,1776301.4204134,1,1,1
6207,8,0.105,0,2,3,4,1776286.3441748,1776304.3370419,0,1,0
6207,12,0.077,0,0,3,4,1776286.3441748,1776306.7704964,1,0,0
6207,3,0.923,1,2,0,0,1776286.3441748,1776309.9704911,1,1,1
6207,1,0.895,1,2,3,0,1776286.3441748,1776312.7716178,1,0,0
6207,8,0.105,0,2,3,4,1776286.3441748,1776315.6884832,0,0,1
6207,3,0.923,1,2,0,0,1776286.3441748,1776318.6217861,1,1,1
6207,13,0.444,0,0,3,0,1776286.3441748,1776321.8716725,1,0,0
6207,5,0.833,1,0,3,0,1776286.3441748,1776325.970614,1,0,0
6207,7,0.895,1,0,0,0,1776286.3441748,1776328.1216072,0,0,1
6207,6,0.5,1,0,0,4,1776286.3441748,1776330.5372257,1,1,1
6207,4,0.222,1,0,3,4,1776286.3441748,1776332.9883502,0,1,0
6207,8,0.105,0,2,3,4,1776286.3441748,1776335.2706096,0,0,1
6207,1,0.895,1,2,3,0,1776286.3441748,1776338.3039906,1,0,0
6207,12,0.077,0,0,3,4,1776286.3441748,1776341.7205015,0,1,0
6207,3,0.923,1,2,0,0,1776286.3441748,1776344.670626,1,0,0
6207,12,0.077,0,0,3,4,1776286.3441748,1776348.4715819,0,1,0
6207,2,0.778,1,2,0,4,1776286.3441748,1776351.1717862,0,1,0
6207,10,0.167,0,2,0,4,1776286.3441748,1776353.3382949,0,1,0
6207,1,0.895,1,2,3,0,1776286.3441748,1776355.1383855,1,1,1
6207,6,0.5,1,0,0,4,1776286.3441748,1776357.9538172,0,1,0
6207,14,0.105,0,0,0,4,1776286.3441748,1776360.3872834,0,0,1
6207,11,0.556,0,2,0,0,1776286.3441748,1776362.8205281,0,1,0
6207,7,0.895,1,0,0,0,1776286.3441748,1776364.9206182,1,1,1
6207,4,0.222,1,0,3,4,1776286.3441748,1776367.1037555,0,0,1
6207,12,0.077,0,0,3,4,1776286.3441748,1776369.2050763,0,0,1
6207,1,0.895,1,2,3,0,1776286.3441748,1776372.2385675,1,1,1
6207,12,0.077,0,0,3,4,1776286.3441748,1776374.8372904,0,0,1
6207,3,0.923,1,2,0,0,1776286.3441748,1776377.6217633,1,1,1
6207,2,0.778,1,2,0,4,1776286.3441748,1776379.8037755,1,0,0
6207,14,0.105,0,0,0,4,1776286.3441748,1776382.3052689,0,0,1
6207,8,0.105,0,2,3,4,1776286.3441748,1776385.4219583,0,1,0
6207,3,0.923,1,2,0,0,1776286.3441748,1776387.4386079,0,0,1
6207,8,0.105,0,2,3,4,1776286.3441748,1776389.5051808,1,0,0
6207,14,0.105,0,0,0,4,1776286.3441748,1776392.6053474,0,0,1
6207,5,0.833,1,0,3,0,1776286.3441748,1776396.0373908,1,1,1
6207,9,0.5,0,2,3,0,1776286.3441748,1776398.9706741,1,0,0
6207,2,0.778,1,2,0,4,1776286.3441748,1776402.237253,1,1,1
6207,12,0.077,0,0,3,4,1776286.3441748,1776406.5208637,0,0,1
6207,6,0.5,1,0,0,4,1776286.3441748,1776408.8041913,0,1,0
6207,2,0.778,1,2,0,4,1776286.3441748,1776411.7039698,0,0,1
6207,14,0.105,0,0,0,4,1776286.3441748,1776414.9388441,0,0,1
6207,13,0.444,0,0,3,0,1776286.3441748,1776418.1706047,0,0,1
6207,1,0.895,1,2,3,0,1776286.3441748,1776421.3371674,0,1,0
6207,10,0.167,0,2,0,4,1776286.3441748,1776424.2873084,1,0,0
6207,3,0.923,1,2,0,0,1776286.3441748,1776426.7218834,1,1,1
6207,10,0.167,0,2,0,4,1776286.3441748,1776429.5718868,0,0,1
6207,7,0.895,1,0,0,0,1776286.3441748,1776432.6219039,1,1,1
6207,2,0.778,1,2,0,4,1776286.3441748,1776436.4875112,1,0,0
6207,12,0.077,0,0,3,4,1776286.3441748,1776438.8886305,0,0,1
6207,8,0.105,0,2,3,4,1776286.3441748,1776442.8039625,0,0,1
6207,14,0.105,0,0,0,4,1776286.3441748,1776445.0051138,0,0,1
6207,12,0.077,0,0,3,4,1776286.3441748,1776447.0206306,0,0,1
6207,7,0.895,1,0,0,0,1776286.3441748,1776449.2217277,1,1,1
6207,10,0.167,0,2,0,4,1776286.3441748,1776451.7872591,1,0,0
6207,7,0.895,1,0,0,0,1776286.3441748,1776454.021169,1,1,1
6207,14,0.105,0,0,0,4,1776286.3441748,1776455.9216979,0,0,1
6207,11,0.556,0,2,0,0,1776286.3441748,1776458.404334,0,0,1
6207,13,0.444,0,0,3,0,1776286.3441748,1776460.7885789,0,0,1
6207,3,0.923,1,2,0,0,1776286.3441748,1776463.7718551,1,1,1
6207,4,0.222,1,0,3,4,1776286.3441748,1776466.2374714,0,1,0
6207,5,0.833,1,0,3,0,1776286.3441748,1776468.3719502,1,1,1
6207,12,0.077,0,0,3,4,1776286.3441748,1776470.6543258,0,0,1
6207,3,0.923,1,2,0,0,1776286.3441748,1776473.5887008,1,1,1
6207,1,0.895,1,2,3,0,1776286.3441748,1776477.6707189,1,0,0
6207,10,0.167,0,2,0,4,1776286.3441748,1776480.1221407,0,0,1
6207,7,0.895,1,0,0,0,1776286.3441748,1776482.1717638,0,1,0
6207,12,0.077,0,0,3,4,1776286.3441748,1776484.1706638,1,0,0
6207,8,0.105,0,2,3,4,1776286.3441748,1776488.054108,0,0,1
6207,12,0.077,0,0,3,4,1776286.3441748,1776490.1208182,0,0,1
6207,2,0.778,1,2,0,4,1776286.3441748,1776492.4718482,1,1,1
6207,5,0.833,1,0,3,0,1776286.3441748,1776494.4875606,1,1,1
6207,1,0.895,1,2,3,0,1776286.3441748,1776496.3041326,1,1,1
6207,3,0.923,1,2,0,0,1776286.3441748,1776498.8053084,0,0,1
6207,1,0.895,1,2,3,0,1776286.3441748,1776500.803979,1,1,1
6207,14,0.105,0,0,0,4,1776286.3441748,1776502.7538738,0,0,1
6207,12,0.077,0,0,3,4,1776286.3441748,1776504.6719555,0,0,1
6207,5,0.833,1,0,3,0,1776286.3441748,1776506.6554095,1,1,1
6207,11,0.556,0,2,0,0,1776286.3441748,1776509.0719661,1,0,0
6207,6,0.5,1,0,0,4,1776286.3441748,1776511.7384721,1,0,0
6207,5,0.833,1,0,3,0,1776286.3441748,1776515.9552296,1,1,1
6207,10,0.167,0,2,0,4,1776286.3441748,1776518.2205683,0,0,1
6207,12,0.077,0,0,3,4,1776286.3441748,1776520.655208,0,0,1
6207,8,0.105,0,2,3,4,1776286.3441748,1776524.6541969,0,1,0
6207,13,0.444,0,0,3,0,1776286.3441748,1776526.8375345,0,0,1
6207,8,0.105,0,2,3,4,1776286.3441748,1776528.9539119,1,0,0
6207,10,0.167,0,2,0,4,1776286.3441748,1776530.9386512,0,0,1
6207,11,0.556,0,2,0,0,1776286.3441748,1776533.8053859,1,1,1
6207,8,0.105,0,2,3,4,1776286.3441748,1776536.4052113,0,1,0
6207,3,0.923,1,2,0,0,1776286.3441748,1776539.0706735,1,1,1
6207,9,0.5,0,2,3,0,1776286.3441748,1776541.5540829,1,0,0
6207,7,0.895,1,0,0,0,1776286.3441748,1776543.8382884,1,1,1
6207,12,0.077,0,0,3,4,1776286.3441748,1776546.0719353,0,0,1
6207,13,0.444,0,0,3,0,1776286.3441748,1776547.9375255,1,0,0
6207,14,0.105,0,0,0,4,1776286.3441748,1776550.0219318,0,0,1
6207,12,0.077,0,0,3,4,1776286.3441748,1776552.2706565,0,0,1
6207,14,0.105,0,0,0,4,1776286.3441748,1776554.3885608,0,0,1
6207,7,0.895,1,0,0,0,1776286.3441748,1776556.5551625,1,1,1
6207,3,0.923,1,2,0,0,1776286.3441748,1776558.6052786,1,1,1
6207,7,0.895,1,0,0,0,1776286.3441748,1776560.3223556,1,1,1
6207,3,0.923,1,2,0,0,1776286.3441748,1776563.220801,1,1,1
6207,4,0.222,1,0,3,4,1776286.3441748,1776566.6540333,0,1,0
6207,1,0.895,1,2,3,0,1776286.3441748,1776569.9874529,1,1,1
6207,8,0.105,0,2,3,4,1776286.3441748,1776573.2708067,0,0,1
6207,1,0.895,1,2,3,0,1776286.3441748,1776575.9551377,1,1,1
6207,3,0.923,1,2,0,0,1776286.3441748,1776578.5041938,1,1,1
6207,13,0.444,0,0,3,0,1776286.3441748,1776580.3885803,0,0,1
6207,14,0.105,0,0,0,4,1776286.3441748,1776583.0219854,0,0,1
6207,7,0.895,1,0,0,0,1776286.3441748,1776585.0720502,1,1,1
6207,3,0.923,1,2,0,0,1776286.3441748,1776588.3707064,1,1,1
6207,12,0.077,0,0,3,4,1776286.3441748,1776592.8541592,0,0,1
6207,8,0.105,0,2,3,4,1776286.3441748,1776598.4889421,0,0,1
6207,13,0.444,0,0,3,0,1776286.3441748,1776601.220734,1,0,0
6207,14,0.105,0,0,0,4,1776286.3441748,1776603.4386229,0,0,1
6207,1,0.895,1,2,3,0,1776286.3441748,1776607.7042457,1,1,1
6207,12,0.077,0,0,3,4,1776286.3441748,1776611.3053343,0,0,1
6207,1,0.895,1,2,3,0,1776286.3441748,1776614.5041533,1,1,1
6207,7,0.895,1,0,0,0,1776286.3441748,1776617.0208493,1,1,1
6207,4,0.222,1,0,3,4,1776286.3441748,1776621.3708008,1,1,1
6207,3,0.923,1,2,0,0,1776286.3441748,1776624.0376711,1,1,1
6207,7,0.895,1,0,0,0,1776286.3441748,1776625.8719757,1,1,1
6207,4,0.222,1,0,3,4,1776286.3441748,1776629.2708629,0,0,1
6207,1,0.895,1,2,3,0,1776286.3441748,1776634.1222307,0,1,0
6207,6,0.5,1,0,0,4,1776286.3441748,1776637.8708018,0,1,0
6207,11,0.556,0,2,0,0,1776286.3441748,1776640.7385677,1,1,1
6207,12,0.077,0,0,3,4,1776286.3441748,1776644.9373428,0,1,0
6207,11,0.556,0,2,0,0,1776286.3441748,1776647.105356,1,1,1
6207,7,0.895,1,0,0,0,1776286.3441748,1776648.9385259,1,1,1
6207,1,0.895,1,2,3,0,1776286.3441748,1776652.7886581,1,1,1
6207,8,0.105,0,2,3,4,1776286.3441748,1776657.0042186,0,0,1
6207,12,0.077,0,0,3,4,1776286.3441748,1776660.2219048,0,0,1
6207,3,0.923,1,2,0,0,1776286.3441748,1776662.6219794,1,1,1
6207,2,0.778,1,2,0,4,1776286.3441748,1776666.0209456,1,1,1
6207,5,0.833,1,0,3,0,1776286.3441748,1776669.004164,1,1,1
6207,11,0.556,0,2,0,0,1776286.3441748,1776671.4554682,1,1,1
6207,14,0.105,0,0,0,4,1776286.3441748,1776673.6386694,0,0,1
6207,7,0.895,1,0,0,0,1776286.3441748,1776675.4388303,1,1,1
6207,3,0.923,1,2,0,0,1776286.3441748,1776678.0542323,1,1,1
6207,14,0.105,0,0,0,4,1776286.3441748,1776680.3373887,0,0,1
6207,10,0.167,0,2,0,4,1776286.3441748,1776684.5211407,0,0,1
6207,6,0.5,1,0,0,4,1776286.3441748,1776687.0708952,1,0,0
6207,8,0.105,0,2,3,4,1776286.3441748,1776692.4376741,0,0,1
6207,1,0.895,1,2,3,0,1776286.3441748,1776695.4042603,1,1,1
6207,9,0.5,0,2,3,0,1776286.3441748,1776699.0042841,0,1,0
6207,3,0.923,1,2,0,0,1776286.3441748,1776701.9041751,1,1,1
6207,5,0.833,1,0,3,0,1776286.3441748,1776704.7052476,1,1,1
6207,12,0.077,0,0,3,4,1776286.3441748,1776707.43824,0,0,1
6207,10,0.167,0,2,0,4,1776286.3441748,1776710.3554126,0,0,1
6207,14,0.105,0,0,0,4,1776286.3441748,1776712.3875461,1,0,0
6207,10,0.167,0,2,0,4,1776286.3441748,1776716.0048607,0,0,1
6207,3,0.923,1,2,0,0,1776286.3441748,1776720.122219,1,1,1
6207,2,0.778,1,2,0,4,1776286.3441748,1776723.504208,1,1,1
6207,3,0.923,1,2,0,0,1776286.3441748,1776725.6888319,1,1,1
6207,12,0.077,0,0,3,4,1776286.3441748,1776729.5875126,0,0,1
6207,8,0.105,0,2,3,4,1776286.3441748,1776735.4209396,0,0,1
6207,3,0.923,1,2,0,0,1776286.3441748,1776737.6878335,1,1,1
6207,5,0.833,1,0,3,0,1776286.3441748,1776740.3042136,0,1,0
6207,14,0.105,0,0,0,4,1776286.3441748,1776743.0059101,0,0,1
6207,1,0.895,1,2,3,0,1776286.3441748,1776746.3876496,1,1,1
6207,11,0.556,0,2,0,0,1776286.3441748,1776748.3053491,0,1,0
6207,14,0.105,0,0,0,4,1776286.3441748,1776752.3879923,0,0,1
6207,4,0.222,1,0,3,4,1776286.3441748,1776755.004485,0,1,0
6207,10,0.167,0,2,0,4,1776286.3441748,1776757.5209104,0,1,0
6207,12,0.077,0,0,3,4,1776286.3441748,1776759.5542112,0,0,1
6207,4,0.222,1,0,3,4,1776286.3441748,1776762.5721132,1,0,0
6207,8,0.105,0,2,3,4,1776286.3441748,1776766.4709997,0,1,0
6207,3,0.923,1,2,0,0,1776286.3441748,1776768.5875241,1,1,1
6207,11,0.556,0,2,0,0,1776286.3441748,1776770.8720996,0,1,0
6207,12,0.077,0,0,3,4,1776286.3441748,1776773.7043437,0,0,1
6207,1,0.895,1,2,3,0,1776286.3441748,1776776.2376675,1,1,1
6207,14,0.105,0,0,0,4,1776286.3441748,1776778.8889597,0,0,1
6207,7,0.895,1,0,0,0,1776286.3441748,1776780.8554998,1,1,1
6207,13,0.444,0,0,3,0,1776286.3441748,1776782.8210496,0,0,1
6207,14,0.105,0,0,0,4,1776286.3441748,1776785.5876398,0,0,1
6207,7,0.895,1,0,0,0,1776286.3441748,1776787.6556725,1,1,1
6207,3,0.923,1,2,0,0,1776286.3441748,1776790.8377077,1,1,1
6207,1,0.895,1,2,3,0,1776286.3441748,1776793.1555231,1,1,1
6207,13,0.444,0,0,3,0,1776286.3441748,1776794.9875916,1,0,0
6207,2,0.778,1,2,0,4,1776286.3441748,1776797.3877155,1,1,1
6207,1,0.895,1,2,3,0,1776286.3441748,1776799.5710243,1,1,1
6207,12,0.077,0,0,3,4,1776286.3441748,1776801.8054449,0,0,1
6207,9,0.5,0,2,3,0,1776286.3441748,1776804.7376195,0,1,0
6207,5,0.833,1,0,3,0,1776286.3441748,1776806.8043552,1,1,1
6207,7,0.895,1,0,0,0,1776286.3441748,1776808.654513,1,1,1
6207,3,0.923,1,2,0,0,1776286.3441748,1776810.7044353,1,1,1
6207,9,0.5,0,2,3,0,1776286.3441748,1776813.7712865,0,0,1
6207,8,0.105,0,2,3,4,1776286.3441748,1776817.1542696,0,0,1
6207,14,0.105,0,0,0,4,1776286.3441748,1776819.6542085,1,0,0
6207,3,0.923,1,2,0,0,1776286.3441748,1776822.0722737,1,1,1
6207,7,0.895,1,0,0,0,1776286.3441748,1776824.1720997,1,1,1
6207,5,0.833,1,0,3,0,1776286.3441748,1776826.1389907,0,1,0
6207,12,0.077,0,0,3,4,1776286.3441748,1776829.1878258,0,0,1
6207,5,0.833,1,0,3,0,1776286.3441748,1776832.0054411,1,0,0
6207,10,0.167,0,2,0,4,1776286.3441748,1776834.5041501,0,1,0
6207,4,0.222,1,0,3,4,1776286.3441748,1776837.3542854,0,0,1
6209,3,0.923,1,2,0,0,14657.9106738476,14660.2559856893,1,1,1
6209,8,0.105,0,2,3,4,14657.9106738476,14662.6506857777,0,0,1
6209,7,0.895,1,0,0,0,14657.9106738476,14665.0291484187,1,0,0
6209,8,0.105,0,2,3,4,14657.9106738476,14667.1084557861,0,0,1
6209,12,0.077,0,0,3,4,14657.9106738476,14669.3373060539,0,1,0
6209,9,0.5,0,2,3,0,14657.9106738476,14671.6991558211,1,1,1
6209,8,0.105,0,2,3,4,14657.9106738476,14673.7951024141,0,0,1
6209,12,0.077,0,0,3,4,14657.9106738476,14676.0071012737,1,0,0
6209,3,0.923,1,2,0,0,14657.9106738476,14678.1861953976,1,1,1
6209,1,0.895,1,2,3,0,14657.9106738476,14680.2484911932,1,1,1
6209,8,0.105,0,2,3,4,14657.9106738476,14682.3941203507,0,0,1
6209,3,0.923,1,2,0,0,14657.9106738476,14684.6896599636,1,1,1
6209,13,0.444,0,0,3,0,14657.9106738476,14686.8683964571,1,0,0
6209,5,0.833,1,0,3,0,14657.9106738476,14689.1472636482,1,1,1
6209,7,0.895,1,0,0,0,14657.9106738476,14691.0932446866,0,1,0
6209,6,0.5,1,0,0,4,14657.9106738476,14692.9896181089,1,1,1
6209,4,0.222,1,0,3,4,14657.9106738476,14694.8690644902,0,1,0
6209,8,0.105,0,2,3,4,14657.9106738476,14696.8484020081,0,1,0
6209,1,0.895,1,2,3,0,14657.9106738476,14699.3266650947,1,1,1
6209,12,0.077,0,0,3,4,14657.9106738476,14701.5556344586,0,0,1
6209,3,0.923,1,2,0,0,14657.9106738476,14703.7846027958,1,0,0
6209,12,0.077,0,0,3,4,14657.9106738476,14705.9965684592,0,0,1
6209,2,0.778,1,2,0,4,14657.9106738476,14708.0093682057,0,1,0
6209,10,0.167,0,2,0,4,14657.9106738476,14710.1547632778,0,0,1
6209,1,0.895,1,2,3,0,14657.9106738476,14712.3337122961,1,1,1
6209,6,0.5,1,0,0,4,14657.9106738476,14714.3301212761,0,1,0
6209,14,0.105,0,0,0,4,14657.9106738476,14716.5420140444,0,0,1
6209,11,0.556,0,2,0,0,14657.9106738476,14718.5380315132,0,1,0
6209,7,0.895,1,0,0,0,14657.9106738476,14721.0997432932,1,0,0
6209,4,0.222,1,0,3,4,14657.9106738476,14723.3615910412,0,1,0
6209,12,0.077,0,0,3,4,14657.9106738476,14725.4405558364,0,0,1
6209,1,0.895,1,2,3,0,14657.9106738476,14727.7859587113,1,1,1
6209,12,0.077,0,0,3,4,14657.9106738476,14730.015021504,0,1,0
6209,3,0.923,1,2,0,0,14657.9106738476,14732.3102873329,1,1,1
6209,2,0.778,1,2,0,4,14657.9106738476,14734.5224555965,1,0,0
6209,14,0.105,0,0,0,4,14657.9106738476,14736.5681706879,0,1,0
6209,8,0.105,0,2,3,4,14657.9106738476,14738.5974368337,0,0,1
6209,3,0.923,1,2,0,0,14657.9106738476,14741.2419819775,0,0,1
6209,8,0.105,0,2,3,4,14657.9106738476,14743.3876699985,1,0,0
6209,14,0.105,0,0,0,4,14657.9106738476,14745.8660884576,0,1,0
6209,5,0.833,1,0,3,0,14657.9106738476,14747.995031504,1,0,0
6209,9,0.5,0,2,3,0,14657.9106738476,14750.0076621888,1,1,1
6209,2,0.778,1,2,0,4,14657.9106738476,14752.0701109613,1,1,1
6209,12,0.077,0,0,3,4,14657.9106738476,14754.1327394045,0,0,1
6209,6,0.5,1,0,0,4,14657.9106738476,14756.6775097698,0,1,0
6209,2,0.778,1,2,0,4,14657.9106738476,14758.8398750039,0,1,0
6209,14,0.105,0,0,0,4,14657.9106738476,14760.8193134797,0,0,1
6209,13,0.444,0,0,3,0,14657.9106738476,14762.7994767987,0,0,1
6209,1,0.895,1,2,3,0,14657.9106738476,14765.1106532453,0,1,0
6209,10,0.167,0,2,0,4,14657.9106738476,14767.2728141681,1,0,0
6209,3,0.923,1,2,0,0,14657.9106738476,14768.7365068099,1,0,0
6209,10,0.167,0,2,0,4,14657.9106738476,14770.5166927845,0,1,0
6209,7,0.895,1,0,0,0,14657.9106738476,14772.0298161095,1,1,1
6209,2,0.778,1,2,0,4,14657.9106738476,14773.5435804314,1,0,0
6209,12,0.077,0,0,3,4,14657.9106738476,14775.0905232732,0,1,0
6209,8,0.105,0,2,3,4,14657.9106738476,14776.5706487758,0,0,1
6209,14,0.105,0,0,0,4,14657.9106738476,14778.2173906943,0,0,1
6209,12,0.077,0,0,3,4,14657.9106738476,14779.8141783176,0,0,1
6209,7,0.895,1,0,0,0,14657.9106738476,14781.394458474,1,0,0
6209,10,0.167,0,2,0,4,14657.9106738476,14783.5732781293,1,1,1
6209,7,0.895,1,0,0,0,14657.9106738476,14785.6688927591,1,0,0
6209,14,0.105,0,0,0,4,14657.9106738476,14787.8148569598,0,0,1
6209,11,0.556,0,2,0,0,14657.9106738476,14789.5945028954,0,1,0
6209,13,0.444,0,0,3,0,14657.9106738476,14791.5404384172,0,0,1
6209,3,0.923,1,2,0,0,14657.9106738476,14793.4532963771,1,0,0
6209,4,0.222,1,0,3,4,14657.9106738476,14795.4660143305,0,0,1
6209,5,0.833,1,0,3,0,14657.9106738476,14797.2788086698,1,0,0
6209,12,0.077,0,0,3,4,14657.9106738476,14798.875649681,0,1,0
6209,3,0.923,1,2,0,0,14657.9106738476,14800.3063486072,1,1,1
6209,1,0.895,1,2,3,0,14657.9106738476,14802.2854205545,1,1,1
6209,10,0.167,0,2,0,4,14657.9106738476,14803.8491159,0,1,0
6209,7,0.895,1,0,0,0,14657.9106738476,14806.0777238689,0,1,0
6209,12,0.077,0,0,3,4,14657.9106738476,14808.1402879729,1,0,0
6209,8,0.105,0,2,3,4,14657.9106738476,14809.8867834515,0,1,0
6209,12,0.077,0,0,3,4,14657.9106738476,14812.6311464947,0,1,0
6209,2,0.778,1,2,0,4,14657.9106738476,14814.560584132,1,0,0
6209,5,0.833,1,0,3,0,14657.9106738476,14816.8896362813,1,1,1
6209,1,0.895,1,2,3,0,14657.9106738476,14819.1847549513,1,1,1
6209,3,0.923,1,2,0,0,14657.9106738476,14821.1806913116,0,1,0
6209,1,0.895,1,2,3,0,14657.9106738476,14823.3096993817,1,1,1
6209,14,0.105,0,0,0,4,14657.9106738476,14825.3223177462,0,1,0
6209,12,0.077,0,0,3,4,14657.9106738476,14828.2995775854,0,0,1
6209,5,0.833,1,0,3,0,14657.9106738476,14830.8120736027,1,1,1
6209,11,0.556,0,2,0,0,14657.9106738476,14833.1066477847,1,0,0
6209,6,0.5,1,0,0,4,14657.9106738476,14836.0514166442,1,0,0
6209,5,0.833,1,0,3,0,14657.9106738476,14838.6120705911,1,0,0
6209,10,0.167,0,2,0,4,14657.9106738476,14840.9074431958,0,1,0
6209,12,0.077,0,0,3,4,14657.9106738476,14843.1029859231,0,0,1
6209,8,0.105,0,2,3,4,14657.9106738476,14845.3325179132,0,1,0
6209,13,0.444,0,0,3,0,14657.9106738476,14847.7935972863,0,0,1
6209,8,0.105,0,2,3,4,14657.9106738476,14850.7868512473,1,1,1
6209,10,0.167,0,2,0,4,14657.9106738476,14854.3469562572,0,0,1
6209,11,0.556,0,2,0,0,14657.9106738476,14856.6427412491,1,1,1
6209,8,0.105,0,2,3,4,14657.9106738476,14858.9048877639,0,1,0
6209,3,0.923,1,2,0,0,14657.9106738476,14860.9337446026,1,1,1
6209,9,0.5,0,2,3,0,14657.9106738476,14863.1797566813,1,1,1
6209,7,0.895,1,0,0,0,14657.9106738476,14865.524579134,1,1,1
6209,12,0.077,0,0,3,4,14657.9106738476,14867.4877144542,0,1,0
6209,13,0.444,0,0,3,0,14657.9106738476,14869.6499410851,1,0,0
6209,14,0.105,0,0,0,4,14657.9106738476,14871.7457220387,0,0,1
6209,12,0.077,0,0,3,4,14657.9106738476,14873.792511048,0,0,1
6209,14,0.105,0,0,0,4,14657.9106738476,14875.9039972813,0,1,0
6209,7,0.895,1,0,0,0,14657.9106738476,14878.1003178975,1,1,1
6209,3,0.923,1,2,0,0,14657.9106738476,14880.3622494919,1,1,1
6209,7,0.895,1,0,0,0,14657.9106738476,14882.3410035075,1,1,1
6209,3,0.923,1,2,0,0,14657.9106738476,14885.0852169961,1,1,1
6209,4,0.222,1,0,3,4,14657.9106738476,14887.2315501208,0,1,0
6209,1,0.895,1,2,3,0,14657.9106738476,14889.0609107905,1,0,0
6209,8,0.105,0,2,3,4,14657.9106738476,14890.6082122894,0,0,1
6209,1,0.895,1,2,3,0,14657.9106738476,14892.1382469128,1,1,1
6209,3,0.923,1,2,0,0,14657.9106738476,14893.9007009214,1,1,1
6209,13,0.444,0,0,3,0,14657.9106738476,14895.6973173612,0,0,1
6209,14,0.105,0,0,0,4,14657.9106738476,14897.710850849,0,0,1
6209,7,0.895,1,0,0,0,14657.9106738476,14900.2388043714,1,0,0
6209,3,0.923,1,2,0,0,14657.9106738476,14902.251070239,1,1,1
6209,12,0.077,0,0,3,4,14657.9106738476,14904.0967874522,0,1,0
6209,8,0.105,0,2,3,4,14657.9106738476,14905.6278268631,0,1,0
6209,13,0.444,0,0,3,0,14657.9106738476,14907.3901569844,1,1,1
6209,14,0.105,0,0,0,4,14657.9106738476,14909.2531441531,0,1,0
6209,1,0.895,1,2,3,0,14657.9106738476,14911.2830519803,1,1,1
6209,12,0.077,0,0,3,4,14657.9106738476,14913.2787364592,0,0,1
6209,1,0.895,1,2,3,0,14657.9106738476,14915.2080214619,1,0,0
6209,7,0.895,1,0,0,0,14657.9106738476,14917.0371138233,1,0,0
6209,4,0.222,1,0,3,4,14657.9106738476,14919.1166894991,1,1,1
6209,3,0.923,1,2,0,0,14657.9106738476,14921.129541949,1,1,1
6209,7,0.895,1,0,0,0,14657.9106738476,14922.9919572514,1,1,1
6209,4,0.222,1,0,3,4,14657.9106738476,14925.15476362,0,0,1
6209,1,0.895,1,2,3,0,14657.9106738476,14927.2169221813,0,0,1
6209,6,0.5,1,0,0,4,14657.9106738476,14929.462827142,0,1,0
6209,11,0.556,0,2,0,0,14657.9106738476,14933.0718423031,1,1,1
6209,12,0.077,0,0,3,4,14657.9106738476,14935.0348561316,0,1,0
6209,11,0.556,0,2,0,0,14657.9106738476,14936.8807105791,1,1,1
6209,7,0.895,1,0,0,0,14657.9106738476,14938.9101782984,1,0,0
6209,1,0.895,1,2,3,0,14657.9106738476,14940.8230133288,1,1,1
6209,8,0.105,0,2,3,4,14657.9106738476,14942.9031940674,0,0,1
6209,12,0.077,0,0,3,4,14657.9106738476,14944.7815343611,0,0,1
6209,3,0.923,1,2,0,0,14657.9106738476,14946.7275879523,1,0,0
6209,2,0.778,1,2,0,4,14657.9106738476,14948.5588993334,1,1,1
6209,5,0.833,1,0,3,0,14657.9106738476,14950.7360776534,1,1,1
6209,11,0.556,0,2,0,0,14657.9106738476,14953.3810618783,1,1,1
6209,14,0.105,0,0,0,4,14657.9106738476,14955.427561361,0,0,1
6209,7,0.895,1,0,0,0,14657.9106738476,14957.3561215204,1,0,0
6209,3,0.923,1,2,0,0,14657.9106738476,14959.0201905469,1,1,1
6209,14,0.105,0,0,0,4,14657.9106738476,14960.9155198252,0,1,0
6209,10,0.167,0,2,0,4,14657.9106738476,14963.9428321796,0,1,0
6209,6,0.5,1,0,0,4,14657.9106738476,14965.2902203311,1,0,0
6209,8,0.105,0,2,3,4,14657.9106738476,14967.1531920996,0,0,1
6209,1,0.895,1,2,3,0,14657.9106738476,14968.9660162128,1,0,0
6209,9,0.5,0,2,3,0,14657.9106738476,14971.0626698531,0,1,0
6209,3,0.923,1,2,0,0,14657.9106738476,14972.7590423171,1,0,0
6209,5,0.833,1,0,3,0,14657.9106738476,14974.3890875154,1,0,0
6209,12,0.077,0,0,3,4,14657.9106738476,14976.3515794431,0,0,1
6209,10,0.167,0,2,0,4,14657.9106738476,14978.380744631,0,0,1
6209,14,0.105,0,0,0,4,14657.9106738476,14980.2104643001,1,0,0
6209,10,0.167,0,2,0,4,14657.9106738476,14982.389167255,0,1,0
6209,3,0.923,1,2,0,0,14657.9106738476,14984.7517668482,1,1,1
6209,2,0.778,1,2,0,4,14657.9106738476,14986.8308630597,1,1,1
6209,3,0.923,1,2,0,0,14657.9106738476,14988.8758796596,1,1,1
6209,12,0.077,0,0,3,4,14657.9106738476,14990.904797073,0,1,0
6209,8,0.105,0,2,3,4,14657.9106738476,14993.117712767,0,1,0
6209,3,0.923,1,2,0,0,14657.9106738476,14995.3970375197,1,1,1
6209,5,0.833,1,0,3,0,14657.9106738476,14997.7584608682,0,0,1
6209,14,0.105,0,0,0,4,14657.9106738476,14999.8700446371,0,1,0
6209,1,0.895,1,2,3,0,14657.9106738476,15002.0168736531,1,1,1
6209,11,0.556,0,2,0,0,14657.9106738476,15004.3446711871,0,0,1
6209,14,0.105,0,0,0,4,14657.9106738476,15006.5398555994,0,0,1
6209,4,0.222,1,0,3,4,14657.9106738476,15008.636950032,0,0,1
6209,10,0.167,0,2,0,4,14657.9106738476,15010.61571055,0,0,1
6209,12,0.077,0,0,3,4,14657.9106738476,15012.7283726858,0,0,1
6209,4,0.222,1,0,3,4,14657.9106738476,15014.9075633185,1,0,0
6209,8,0.105,0,2,3,4,14657.9106738476,15017.1860489232,0,0,1
6209,3,0.923,1,2,0,0,14657.9106738476,15019.2322167849,1,0,0
6209,11,0.556,0,2,0,0,14657.9106738476,15020.8443900451,0,1,0
6209,12,0.077,0,0,3,4,14657.9106738476,15022.2257366588,0,0,1
6209,1,0.895,1,2,3,0,14657.9106738476,15023.8725254628,1,1,1
6209,14,0.105,0,0,0,4,14657.9106738476,15025.4187376434,0,1,0
6209,7,0.895,1,0,0,0,14657.9106738476,15026.8675138458,1,0,0
6209,13,0.444,0,0,3,0,14657.9106738476,15028.712557208,0,1,0
6209,14,0.105,0,0,0,4,14657.9106738476,15030.2919099209,0,1,0
6209,7,0.895,1,0,0,0,14657.9106738476,15031.6225671293,1,0,0
6209,3,0.923,1,2,0,0,14657.9106738476,15032.9535227622,1,0,0
6209,1,0.895,1,2,3,0,14657.9106738476,15034.3677785607,1,0,0
6209,13,0.444,0,0,3,0,14657.9106738476,15036.3298659724,1,0,0
6209,2,0.778,1,2,0,4,14657.9106738476,15038.2602064126,1,1,1
6209,1,0.895,1,2,3,0,14657.9106738476,15040.2562800072,1,1,1
6209,12,0.077,0,0,3,4,14657.9106738476,15042.5350301556,0,0,1
6209,9,0.5,0,2,3,0,14657.9106738476,15044.9799802259,0,1,0
6209,5,0.833,1,0,3,0,14657.9106738476,15046.7595005631,1,1,1
6209,7,0.895,1,0,0,0,14657.9106738476,15048.4727131417,1,1,1
6209,3,0.923,1,2,0,0,14657.9106738476,15050.2858052211,1,1,1
6209,9,0.5,0,2,3,0,14657.9106738476,15052.4314401965,0,1,0
6209,8,0.105,0,2,3,4,14657.9106738476,15054.6267977773,0,0,1
6209,14,0.105,0,0,0,4,14657.9106738476,15057.8035366739,1,0,0
6209,3,0.923,1,2,0,0,14657.9106738476,15059.7325492615,1,0,0
6209,7,0.895,1,0,0,0,14657.9106738476,15061.6629307693,1,0,0
6209,5,0.833,1,0,3,0,14657.9106738476,15063.8414769828,0,1,0
6209,12,0.077,0,0,3,4,14657.9106738476,15065.8209192231,0,1,0
6209,5,0.833,1,0,3,0,14657.9106738476,15067.7005883961,1,1,1
6209,10,0.167,0,2,0,4,14657.9106738476,15069.9292418817,0,0,1
6209,4,0.222,1,0,3,4,14657.9106738476,15071.8422517917,0,1,0
6210,3,0.923,1,2,0,0,1323972.6522186,1323974.4571441,1,1,1
6210,8,0.105,0,2,3,4,1323972.6522186,1323976.9892291,0,0,1
6210,7,0.895,1,0,0,0,1323972.6522186,1323979.8404208,1,0,0
6210,8,0.105,0,2,3,4,1323972.6522186,1323982.6560272,0,1,0
6210,12,0.077,0,0,3,4,1323972.6522186,1323984.9742075,0,0,1
6210,9,0.5,0,2,3,0,1323972.6522186,1323987.4738339,1,1,1
6210,8,0.105,0,2,3,4,1323972.6522186,1323990.1405577,0,0,1
6210,12,0.077,0,0,3,4,1323972.6522186,1323992.740684,1,0,0
6210,3,0.923,1,2,0,0,1323972.6522186,1323995.5908266,1,0,0
6210,1,0.895,1,2,3,0,1323972.6522186,1323998.573813,1,0,0
6210,8,0.105,0,2,3,4,1323972.6522186,1324001.456033,0,0,1
6210,3,0.923,1,2,0,0,1323972.6522186,1324003.9398959,1,1,1
6210,13,0.444,0,0,3,0,1323972.6522186,1324006.2403968,1,1,1
6210,5,0.833,1,0,3,0,1323972.6522186,1324008.4726005,1,1,1
6210,7,0.895,1,0,0,0,1323972.6522186,1324011.1560839,0,1,0
6210,6,0.5,1,0,0,4,1323972.6522186,1324013.6559771,1,1,1
6210,4,0.222,1,0,3,4,1323972.6522186,1324016.0727642,0,0,1
6210,8,0.105,0,2,3,4,1323972.6522186,1324021.4560676,0,1,0
6210,1,0.895,1,2,3,0,1323972.6522186,1324024.940424,1,1,1
6210,12,0.077,0,0,3,4,1323972.6522186,1324027.4392988,0,0,1
6210,3,0.923,1,2,0,0,1323972.6522186,1324030.4560175,1,1,1
6210,12,0.077,0,0,3,4,1323972.6522186,1324032.5727175,0,0,1
6210,2,0.778,1,2,0,4,1323972.6522186,1324036.3392095,0,0,1
6210,10,0.167,0,2,0,4,1323972.6522186,1324039.5072814,0,1,0
6210,1,0.895,1,2,3,0,1323972.6522186,1324042.8073999,1,1,1
6210,6,0.5,1,0,0,4,1323972.6522186,1324045.0726379,0,1,0
6210,14,0.105,0,0,0,4,1323972.6522186,1324047.9404318,0,0,1
6210,11,0.556,0,2,0,0,1323972.6522186,1324051.7062138,0,1,0
6210,7,0.895,1,0,0,0,1323972.6522186,1324054.6070283,1,1,1
6210,4,0.222,1,0,3,4,1323972.6522186,1324058.1726375,0,1,0
6210,12,0.077,0,0,3,4,1323972.6522186,1324062.0059441,0,0,1
6210,1,0.895,1,2,3,0,1323972.6522186,1324064.6238058,1,1,1
6210,12,0.077,0,0,3,4,1323972.6522186,1324066.8226144,0,0,1
6210,3,0.923,1,2,0,0,1323972.6522186,1324068.940475,1,1,1
6210,2,0.778,1,2,0,4,1323972.6522186,1324071.2404803,1,1,1
6210,14,0.105,0,0,0,4,1323972.6522186,1324073.9738514,0,0,1
6210,8,0.105,0,2,3,4,1323972.6522186,1324076.8227674,0,1,0
6210,3,0.923,1,2,0,0,1323972.6522186,1324078.8895544,0,1,0
6210,8,0.105,0,2,3,4,1323972.6522186,1324081.6727816,1,0,0
6210,14,0.105,0,0,0,4,1323972.6522186,1324084.1226909,0,0,1
6210,5,0.833,1,0,3,0,1323972.6522186,1324086.3226067,1,1,1
6210,9,0.5,0,2,3,0,1323972.6522186,1324088.2060006,1,1,1
6210,2,0.778,1,2,0,4,1323972.6522186,1324090.9060777,1,1,1
6210,12,0.077,0,0,3,4,1323972.6522186,1324093.1227398,0,0,1
6210,6,0.5,1,0,0,4,1323972.6522186,1324096.1905915,0,1,0
6210,2,0.778,1,2,0,4,1323972.6522186,1324098.85618,0,1,0
6210,14,0.105,0,0,0,4,1323972.6522186,1324101.1237568,0,0,1
6210,13,0.444,0,0,3,0,1323972.6522186,1324103.7239569,0,0,1
6210,1,0.895,1,2,3,0,1323972.6522186,1324106.3571088,0,1,0
6210,10,0.167,0,2,0,4,1323972.6522186,1324109.3061039,1,0,0
6210,3,0.923,1,2,0,0,1323972.6522186,1324111.7228017,1,1,1
6210,10,0.167,0,2,0,4,1323972.6522186,1324115.256167,0,0,1
6210,7,0.895,1,0,0,0,1323972.6522186,1324117.9741465,1,1,1
6210,2,0.778,1,2,0,4,1323972.6522186,1324121.2071583,1,0,0
6210,12,0.077,0,0,3,4,1323972.6522186,1324123.4892953,0,0,1
6210,8,0.105,0,2,3,4,1323972.6522186,1324126.106336,0,0,1
6210,14,0.105,0,0,0,4,1323972.6522186,1324128.1226739,0,0,1
6210,12,0.077,0,0,3,4,1323972.6522186,1324130.0227964,0,0,1
6210,7,0.895,1,0,0,0,1323972.6522186,1324132.0394415,1,1,1
6210,10,0.167,0,2,0,4,1323972.6522186,1324136.2560958,1,0,0
6210,7,0.895,1,0,0,0,1323972.6522186,1324138.3727587,1,1,1
6210,14,0.105,0,0,0,4,1323972.6522186,1324140.707472,0,0,1
6210,11,0.556,0,2,0,0,1323972.6522186,1324142.9573427,0,1,0
6210,13,0.444,0,0,3,0,1323972.6522186,1324146.0741625,0,0,1
6210,3,0.923,1,2,0,0,1323972.6522186,1324148.590759,1,1,1
6210,4,0.222,1,0,3,4,1323972.6522186,1324151.2906122,0,0,1
6210,5,0.833,1,0,3,0,1323972.6522186,1324153.7908411,1,1,1
6210,12,0.077,0,0,3,4,1323972.6522186,1324155.8575018,0,0,1
6210,3,0.923,1,2,0,0,1323972.6522186,1324158.6740095,1,1,1
6210,1,0.895,1,2,3,0,1323972.6522186,1324161.7406582,1,0,0
6210,10,0.167,0,2,0,4,1323972.6522186,1324165.0061356,0,0,1
6210,7,0.895,1,0,0,0,1323972.6522186,1324167.5406135,0,1,0
6210,12,0.077,0,0,3,4,1323972.6522186,1324170.3562956,1,0,0
6210,8,0.105,0,2,3,4,1323972.6522186,1324173.4905013,0,1,0
6210,12,0.077,0,0,3,4,1323972.6522186,1324176.2728014,0,0,1
6210,2,0.778,1,2,0,4,1323972.6522186,1324179.6228125,1,1,1
6210,5,0.833,1,0,3,0,1323972.6522186,1324181.7561648,1,1,1
6210,1,0.895,1,2,3,0,1323972.6522186,1324183.97273,1,1,1
6210,3,0.923,1,2,0,0,1323972.6522186,1324186.5072778,0,0,1
6210,1,0.895,1,2,3,0,1323972.6522186,1324188.9727713,1,1,1
6210,14,0.105,0,0,0,4,1323972.6522186,1324191.2066074,0,0,1
6210,12,0.077,0,0,3,4,1323972.6522186,1324193.1574624,0,0,1
